playerId,deviceId,soccerFieldId,epoch_time,session,latitude,longitude,altitude,satellite,pdop,speed,heading,accX,accY,accZ,rotX,rotY,rotZ,pitch,roll,temp,step,crc,cnt,synced
,77686439338177232025102910010003,,0,2,0,0,0,0,0,0,0,5568,-102,6388,-1610,130,-1719,-42.98151398,-17.32404518,-5280,0,45278,43584,0
,77686439338177232025102910010003,,0,2,0,0,0,0,0,0,0,5792,-342,5814,35,-219,519,-45.34608459,-19.17683029,-5264,0,31520,43521,0
,77686439338177232025102910010003,,0,2,0,0,0,0,0,0,0,5708,-540,5262,300,-225,151,-46.79933548,-15.26084518,-5232,0,1440,43522,0
,77686439338177232025102910010003,,0,2,0,0,0,0,0,0,0,5684,-666,5748,-815,939,-1267,-44.89920044,-13.47038555,-5232,0,53278,43523,0
,77686439338177232025102910010003,,0,2,0,0,0,0,0,0,0,4278,1310,6566,-3246,4461,-2591,-37.7439003,-17.08631897,-5264,0,32907,43524,0
,77686439338177232025102910010003,,0,2,0,0,0,0,0,0,0,6230,5776,10962,2310,-4122,5777,-38.74720383,3.795597553,-5216,1,26312,43525,0
,77686439338177232025102910010003,,0,2,0,0,0,0,0,0,0,8126,1550,2912,-901,1788,-2228,-60.74753952,3.741456985,-5184,2,33038,43526,0
,77686439338177232025102910010003,,0,2,0,0,0,0,0,0,0,6964,2126,3826,1445,1301,533,-61.55102158,3.174711227,-5216,2,5127,43527,0
,77686439338177232025102910010003,,0,2,0,0,0,0,0,0,0,7602,4022,3898,2676,1445,-3797,-52.14464188,40.88622284,-5216,3,44487,43528,0
,77686439338177232025102910010003,,0,2,0,0,0,0,0,0,0,8002,1582,4370,-6868,-9241,7616,-58.72329712,3.563550234,-5200,4,4071,43529,0
,77686439338177232025102910010003,,0,2,0,0,0,0,0,0,0,8558,112,-2004,-5491,1882,-7620,-83.25178528,-46.08909225,-5216,5,39142,43530,0
,77686439338177232025102910010003,,0,2,0,0,0,0,0,0,0,3800,10502,-5314,22601,-11758,-8793,-108.0897675,32.21123505,-5200,6,45816,43531,0
,77686439338177232025102910010003,,0,2,0,0,0,0,0,0,0,7990,4140,-7650,10014,-2123,-3754,-80.35372925,15.75702667,-5152,7,52826,43532,0
,77686439338177232025102910010003,,0,2,0,0,0,0,0,0,0,9400,1784,-700,-1962,2228,8785,-66.83049774,12.2059412,-5152,9,63387,43533,0
,77686439338177232025102910010003,,0,2,0,0,0,0,0,0,0,4772,8124,2380,-5138,109,1240,-72.29110718,32.90100098,-4880,9,6213,43534,0
,77686439338177232025102910010003,,0,2,0,0,0,0,0,0,0,6110,7186,-6158,-4954,-3258,153,-102.2466278,43.52515793,-5168,9,44619,43535,0
,77686439338177232025102910010003,,0,2,0,0,0,0,0,0,0,5116,5000,-3112,-2127,-364,684,-110.8040314,32.45476913,-5168,9,49794,43536,0
,77686439338177232025102910010003,,0,2,0,0,0,0,0,0,0,4278,6672,-3340,4037,826,3578,-112.7152557,29.86730003,-4880,9,3425,43537,0
,77686439338177232025102910010003,,0,2,0,0,0,0,0,0,0,5930,3638,-1734,3019,2759,617,-96.74822235,63.38636017,-5152,11,9071,43538,0
,77686439338177232025102910010003,,0,2,0,0,0,0,0,0,0,6502,2804,832,1746,-3650,-1012,-90.16040039,32.5650177,-5120,12,38228,43539,0
,77686439338177232025102910010003,,0,2,0,0,0,0,0,0,0,6368,3094,2066,-2480,1454,1237,-89.64266205,11.46640587,-5136,13,45178,43540,0
,77686439338177232025102910010003,,0,2,0,0,0,0,0,0,0,7302,2892,648,1382,-3129,1485,-96.31892395,12.31768894,-4880,13,30351,43541,0
,77686439338177232025102910010003,,0,2,0,0,0,0,0,0,0,7616,2440,1562,-6283,2848,-1185,-74.86286163,7.576396465,-5120,13,52123,43542,0
,77686439338177232025102910010003,,0,2,0,0,0,0,0,0,0,8012,-566,-1558,-6664,4434,-5602,-94.47650909,46.03726959,-5376,14,6547,43543,0
,77686439338177232025102910010003,,0,2,0,0,0,0,0,0,0,6980,5294,250,228,1433,-2919,-59.0216217,94.87750244,-5072,15,21953,43544,0
,77686439338177232025102910010003,,0,2,0,0,0,0,0,0,0,2512,2748,6570,350,976,1317,-14.72405529,44.5642128,-5104,15,23169,43545,0
,77686439338177232025102910010003,,0,2,0,0,0,0,0,0,0,3516,3746,6688,-70,-794,-1477,-20.93884087,37.04691696,-5120,15,10508,43546,0
,77686439338177232025102910010003,,0,2,0,0,0,0,0,0,0,4830,3298,3744,489,-3929,-3212,-47.20745468,51.68057251,-5072,16,21710,43547,0
,77686439338177232025102910010003,,0,2,0,0,0,0,0,0,0,4916,3514,3896,-8366,-5192,2060,-78.9008255,2.711137772,-5072,18,52594,43548,0
,77686439338177232025102910010003,,0,2,0,0,0,0,0,0,0,6972,-2362,5936,-2679,3939,857,-67.14174652,-38.5357132,-5056,19,23777,43549,0
,77686439338177232025102910010003,,0,2,0,0,0,0,0,0,0,8378,-3284,2532,-2378,-4503,-2680,-90.6494751,-46.09095764,-5072,20,46347,43550,0
,77686439338177232025102910010003,,0,2,0,0,0,0,0,0,0,5790,1550,6962,3114,10431,3879,-33.67515564,-63.91383743,-5072,21,57719,43551,0
,77686439338177232025102910010003,,0,2,0,0,0,0,0,0,0,1826,5656,8578,-32768,-1706,1868,-56.35234451,-183.9255371,-5056,22,52790,43552,0
,77686439338177232025102910010003,,0,2,0,0,0,0,0,0,0,3170,7644,3946,-372,17668,-1208,8.542221069,-169.5072174,-5040,23,45495,43553,0
,77686439338177232025102910010003,,0,2,0,0,0,0,0,0,0,3830,5998,2832,3693,1589,-6041,-8.403849602,-122.4929733,-5040,23,879,43554,0
,77686439338177232025102910010003,,0,2,0,0,0,0,0,0,0,4032,9602,1708,8602,-339,3127,-12.37500668,-67.69165802,-5040,23,59952,43555,0
,77686439338177232025102910010003,,0,2,0,0,0,0,0,0,0,4874,7420,-162,-2059,-5959,4993,-29.32645416,-44.94787216,-5024,24,34148,43556,0
,77686439338177232025102910010003,,0,2,0,0,0,0,0,0,0,7182,1226,-5200,-2122,-4131,-3402,-76.64669037,-6.565217018,-5008,26,52217,43557,0
,77686439338177232025102910010003,,0,2,0,0,0,0,0,0,0,4302,-7654,-5354,3794,685,19876,-73.32629395,-5.447435379,-5024,26,39142,43558,0
,77686439338177232025102910010003,,0,2,0,0,0,0,0,0,0,4318,-10724,-3926,-4011,2771,-7264,-81.47118378,-25.47218323,-4976,26,61262,43559,0
,77686439338177232025102910010003,,0,2,0,0,0,0,0,0,0,2112,-5922,-4016,3679,6808,-6415,-87.59078217,-31.65829468,-4992,27,65092,43560,0
,77686439338177232025102910010003,,0,2,0,0,0,0,0,0,0,380,-4394,-7598,-6099,-2159,8421,-63.3611145,-53.95406342,-5008,27,57967,43561,0
,77686439338177232025102910010003,,0,2,0,0,0,0,0,0,0,-574,-3042,-844,-17536,8198,442,-16.570467,-70.35680389,-5008,27,27649,43562,0
,77686439338177232025102910010003,,0,2,0,0,0,0,0,0,0,-6820,-306,-8110,7126,-2984,3596,-18.51696396,-54.58407593,-4992,27,14666,43563,0
,77686439338177232025102910010003,,0,2,0,0,0,0,0,0,0,-5054,-266,-10924,-16437,2853,20447,23.96857262,-45.21585464,-4992,27,9915,43564,0
,77686439338177232025102910010003,,0,2,0,0,0,0,0,0,0,-6354,4522,-5096,-4076,6085,2792,23.08254623,-47.33498764,-4976,28,54182,43565,0
,77686439338177232025102910010003,,0,2,0,0,0,0,0,0,0,-1670,-1906,-4504,-975,9252,-15863,83.91772461,-16.19731903,-4960,30,58880,43566,0
,77686439338177232025102910010003,,0,2,0,0,0,0,0,0,0,-4396,-1986,-6804,888,2677,-58,63.6929512,-14.74751377,-4928,31,18276,43567,0
,77686439338177232025102910010003,,0,2,0,0,0,0,0,0,0,-1696,-2486,-5838,2654,-191,-6056,85.82707977,-10.54913807,-4976,33,43066,43568,0
,77686439338177232025102910010003,,0,2,0,0,0,0,0,0,0,70,-1728,-3482,-1630,429,4221,66.224617,-1.789577961,-4928,35,34871,43569,0
,77686439338177232025102910010003,,0,2,0,0,0,0,0,0,0,-6958,-9856,13360,18024,-9955,-9260,7.657263279,13.17278767,-4960,36,53933,43570,0
,77686439338177232025102910010003,,0,2,0,0,0,0,0,0,0,1198,-9426,-3406,3149,-2191,-14248,-12.40749741,0.8296669722,-4896,38,21852,43571,0
,77686439338177232025102910010003,,0,2,0,0,0,0,0,0,0,6718,-764,-4878,5719,3335,580,-7.949720383,10.08642006,-4944,40,50237,43572,0
,77686439338177232025102910010003,,0,2,0,0,0,0,0,0,0,6436,-864,-1444,-144,-8163,5719,-0.04831671715,-4.729637623,-4880,42,15548,43573,0
,77686439338177232025102910010003,,0,2,0,0,0,0,0,0,0,7420,3248,-692,4068,-13292,-2213,-14.06762314,40.67621231,-4896,44,13657,43574,0
,77686439338177232025102910010003,,0,2,0,0,0,0,0,0,0,8710,474,2380,-2893,3294,-2679,8.817135811,73.25952911,-4880,45,58846,43575,0
,77686439338177232025102910010003,,0,2,0,0,0,0,0,0,0,6382,2154,-3670,1771,1520,-5694,-49.43609619,27.78868866,-4848,45,26771,43576,0
,77686439338177232025102910010003,,0,2,0,0,0,0,0,0,0,5780,4090,-2890,1295,-97,2046,-66.72583771,26.95998001,-4864,45,35461,43577,0
,77686439338177232025102910010003,,0,2,0,0,0,0,0,0,0,4466,8612,-5326,-1786,-2521,2655,-106.0283432,13.65014267,-5120,46,42749,43578,0
,77686439338177232025102910010003,,0,2,0,0,0,0,0,0,0,2760,12208,-12140,2392,2722,14900,-134.9394836,35.87872314,-5120,46,24068,43579,0
,77686439338177232025102910010003,,0,2,0,0,0,0,0,0,0,1036,1386,-17122,2505,-3601,11688,-156.5275421,4.779342651,-5120,48,61659,43580,0
,77686439338177232025102910010003,,0,2,0,0,0,0,0,0,0,9956,-5048,-50,31164,-14938,11918,-127.3423767,65.87023926,-4848,50,49013,43581,0
,77686439338177232025102910010003,,0,2,0,0,0,0,0,0,0,2462,-4610,-4398,-4645,-8787,442,-165.6137238,43.01041031,-4832,51,61137,43582,0
,77686439338177232025102910010003,,0,2,0,0,0,0,0,0,0,-5216,-2352,3834,-32768,14742,18846,-92.17048645,75.93948364,-4848,51,27814,43583,0
,77686439338177232025102910010003,,0,2,0,0,0,0,0,0,0,-8364,3140,894,15536,-4627,-821,-46.66913223,38.24956894,-4800,51,21431,43584,0
,77686439338177232025102910010003,,0,2,0,0,0,0,0,0,0,-7458,2098,-332,-25934,-10602,-4252,-36.29520798,-15.38737583,-4848,52,9277,43521,0
,77686439338177232025102910010003,,0,2,0,0,0,0,0,0,0,-10514,2082,-13644,-32768,23897,-9671,-10.90880203,-50.01137543,-4816,53,20348,43522,0
,77686439338177232025102910010003,,0,2,0,0,0,0,0,0,0,-1910,478,-408,10866,6267,-8097,3.014763832,-29.33890152,-4816,55,42967,43523,0
,77686439338177232025102910010003,,0,2,0,0,0,0,0,0,0,-12574,894,676,-1640,32767,-9709,33.09994507,38.08657455,-4816,56,53428,43524,0
,77686439338177232025102910010003,,0,2,0,0,0,0,0,0,0,-8688,526,-996,-4109,6718,3085,28.42168427,37.23096466,-4800,56,49588,43525,0
,77686439338177232025102910010003,,0,2,0,0,0,0,0,0,0,-8040,-5778,-10264,-32768,-32768,32767,43.06208801,28.52841949,-4768,57,2533,43526,0
,77686439338177232025102910010003,,0,2,0,0,0,0,0,0,0,-14184,766,-2018,-239,-13932,5054,73.39375305,13.90607643,-4784,59,28347,43527,0
,77686439338177232025102910010003,,0,2,0,0,0,0,0,0,0,-9494,-1154,3800,21445,32767,-3823,117.2711182,27.07777596,-4784,60,5848,43528,0
,77686439338177232025102910010003,,0,2,0,0,0,0,0,0,0,8184,1918,626,-1007,2249,-601,124.0205154,1.171804786,-4784,62,22328,43529,0
,77686439338177232025102910010003,,0,2,0,0,0,0,0,0,0,9358,-210,-464,-7869,2923,-3752,107.0618896,-3.156767607,-4736,64,2176,43530,0
,77686439338177232025102910010003,,0,2,0,0,0,0,0,0,0,6164,-1414,-2640,1038,-1271,805,67.14220428,-1.914285898,-4784,66,49453,43531,0
,77686439338177232025102910010003,,0,2,0,0,0,0,0,0,0,7116,-640,-5080,15741,62,-1644,-0.4556183815,22.65893745,-4736,67,18540,43532,0
,77686439338177232025102910010003,,0,2,0,0,0,0,0,0,0,6454,-1972,-4772,4069,3054,-1352,-33.34663391,22.10339546,-4736,68,30244,43533,0
,77686439338177232025102910010003,,0,2,0,0,0,0,0,0,0,5170,-1666,-1378,-1740,-9385,-3242,-66.59113312,14.39670277,-4752,69,38902,43534,0
,77686439338177232025102910010003,,0,2,0,0,0,0,0,0,0,-5378,6380,-11728,1749,-925,-451,-85.22547913,-7.710705757,-4736,69,21901,43535,0
,77686439338177232025102910010003,,0,2,0,0,0,0,0,0,0,158,-1660,-8672,1172,4112,-2277,-21.69436646,14.79057312,-4752,70,13521,43536,0
,77686439338177232025102910010003,,0,2,0,0,0,0,0,0,0,5788,2170,-5004,-1430,4766,1708,-2.239166498,-3.718878746,-4736,72,54408,43537,0
,77686439338177232025102910010003,,0,2,0,0,0,0,0,0,0,7382,530,-3892,378,335,634,-10.8995018,-8.36387825,-4720,74,36116,43538,0
,77686439338177232025102910010003,,0,2,0,0,0,0,0,0,0,7888,-870,-2488,-1106,1432,264,-22.60057259,-6.839807034,-4752,75,53473,43539,0
,77686439338177232025102910010003,,0,2,0,0,0,0,0,0,0,7760,-796,-2880,501,-221,-513,-37.66883469,-3.706852436,-4672,75,9865,43540,0
,77686439338177232025102910010003,,0,2,0,0,0,0,0,0,0,8184,524,-3412,-682,-103,-1628,-50.96715546,-12.42120361,-4704,76,30000,43541,0
,77686439338177232025102910010003,,0,2,0,0,0,0,0,0,0,7432,510,-3444,-328,8,249,-65.02738953,-9.544827461,-4720,76,31919,43542,0
,77686439338177232025102910010003,,0,2,0,0,0,0,0,0,0,8960,-1396,-2056,-1071,147,143,-72.62088013,-13.54226875,-4720,76,49792,43543,0
,77686439338177232025102910010003,,0,2,0,0,0,0,0,0,0,7732,-54,-3384,386,346,-1813,-81.18734741,-12.81500435,-4720,76,6276,43544,0
,77686439338177232025102910010003,,0,2,0,0,0,0,0,0,0,7376,520,-3392,-585,-59,467,-86.48145294,-13.97870636,-4704,76,4925,43545,0
,77686439338177232025102910010003,,0,2,0,0,0,0,0,0,0,7888,12,-3000,-906,68,636,-90.06452179,-17.33002663,-4656,76,15259,43546,0
,77686439338177232025102910010003,,0,2,0,0,0,0,0,0,0,8066,-376,-2936,-1297,-429,163,-94.41873932,-19.88112259,-4672,76,65022,43547,0
,77686439338177232025102910010003,,0,2,0,0,0,0,0,0,0,7944,230,-3156,6224,-693,-2440,-103.2584381,-10.51338577,-4656,76,12532,43548,0
,77686439338177232025102910010003,,0,2,0,0,0,0,0,0,0,7302,764,-3618,-7997,315,1195,-108.9984665,-16.62476349,-4640,76,5987,43549,0
,77686439338177232025102910010003,,0,2,0,0,0,0,0,0,0,7516,1754,-2846,4216,109,-1613,-107.5234604,-26.25499535,-4864,76,20909,43550,0
,77686439338177232025102910010003,,0,2,0,0,0,0,0,0,0,7600,696,-3402,338,927,-101,-106.3397675,-4.021996975,-4672,76,11889,43551,0
,77686439338177232025102910010003,,0,2,0,0,0,0,0,0,0,7592,462,-2914,-3044,1037,1336,-100.8610992,0.5121249557,-4640,76,15339,43552,0
,77686439338177232025102910010003,,0,2,0,0,0,0,0,0,0,8542,-472,-2098,1650,-438,-30,-100.3186646,-10.89796543,-4640,76,45399,43553,0
,77686439338177232025102910010003,,0,2,0,0,0,0,0,0,0,6788,-284,-3584,-417,-2061,72,-111.2061462,6.136219025,-4640,76,1004,43554,0
,77686439338177232025102910010003,,0,2,0,0,0,0,0,0,0,9070,730,-1652,2406,3040,-1996,-106.0402222,-4.417757988,-4864,78,59165,43555,0
,77686439338177232025102910010003,,0,2,0,0,0,0,0,0,0,10326,-1016,-5822,-3306,2213,4234,-106.6596069,-0.1298251599,-4368,79,5916,43556,0
,77686439338177232025102910010003,,0,2,0,0,0,0,0,0,0,7318,-388,-3412,-168,-80,-603,-105.2018204,-6.726841927,-4864,80,38163,43557,0
,77686439338177232025102910010003,,0,2,0,0,0,0,0,0,0,7858,-552,-3750,-633,945,64,-109.8987885,-3.848303795,-4368,80,24682,43558,0
,77686439338177232025102910010003,,0,2,0,0,0,0,0,0,0,7314,658,-2222,-82,-515,463,-112.6912384,-9.218894958,-4640,80,58516,43559,0
,77686439338177232025102910010003,,0,2,0,0,0,0,0,0,0,7288,-2146,-3634,466,-19,27,-113.398941,0.5995232463,-4624,80,38941,43560,0
,77686439338177232025102910010003,,0,2,0,0,0,0,0,0,0,7118,-1440,-4018,-2121,-165,380,-116.4490662,-10.89804077,-4576,80,14621,43561,0
,77686439338177232025102910010003,,0,2,0,0,0,0,0,0,0,6696,-484,-3236,-1726,-2274,2188,-120.1555557,-20.96939659,-4592,80,16699,43562,0
,77686439338177232025102910010003,,0,2,0,0,0,0,0,0,0,-404,-6240,-8346,1128,-4057,1544,-161.7681885,-7.106931686,-4592,81,28833,43563,0
,77686439338177232025102910010003,,0,2,0,0,0,0,0,0,0,-978,-5842,-7862,-708,1966,-2055,-103.516571,-13.8943224,-4608,81,19987,43564,0
,77686439338177232025102910010003,,0,2,0,0,0,0,0,0,0,5424,-260,-5264,-150,5509,-3101,-68.87670135,-29.51163101,-4576,82,6977,43565,0
,77686439338177232025102910010003,,0,2,0,0,0,0,0,0,0,8142,114,-2946,899,1032,-1556,-57.94104767,-18.27376556,-4576,84,43301,43566,0
,77686439338177232025102910010003,,0,2,0,0,0,0,0,0,0,7998,220,-2906,-252,83,102,-65.46697235,-12.22583103,-4576,85,41756,43567,0
,77686439338177232025102910010003,,0,2,0,0,0,0,0,0,0,7830,132,-3020,40,120,53,-73.78308105,-11.31529713,-4608,85,42927,43568,0
,77686439338177232025102910010003,,0,2,0,0,0,0,0,0,0,7934,48,-2820,-419,-23,38,-79.68766022,-10.78189564,-4544,85,59765,43569,0
,77686439338177232025102910010003,,0,2,0,0,0,0,0,0,0,7980,182,-2912,-134,16,-79,-85.12530518,-10.33924007,-4544,85,23571,43570,0
,77686439338177232025102910010003,,0,2,0,0,0,0,0,0,0,7928,156,-2870,-303,-53,-62,-89.78635406,-9.673072815,-4544,85,23069,43571,0
,77686439338177232025102910010003,,0,2,0,0,0,0,0,0,0,7880,232,-2840,-117,-60,-63,-93.64600372,-8.885181427,-4560,85,1488,43572,0
,77686439338177232025102910010003,,0,2,0,0,0,0,0,0,0,7914,178,-2806,-302,25,-8,-96.42485809,-8.829110146,-4560,85,31256,43573,0
,77686439338177232025102910010003,,0,2,0,0,0,0,0,0,0,7882,232,-2826,-326,-41,-10,-99.23790741,-8.833805084,-4544,85,36942,43574,0
,77686439338177232025102910010003,,0,2,0,0,0,0,0,0,0,7900,142,-2982,-206,-80,16,-101.6040573,-8.655215263,-4576,85,44122,43575,0
,77686439338177232025102910010003,,0,2,0,0,0,0,0,0,0,7922,88,-3050,-251,-2,-32,-103.6415405,-8.829381943,-4512,85,59887,43576,0
,77686439338177232025102910010003,,0,2,0,0,0,0,0,0,0,7922,154,-2886,-186,81,-25,-104.6047821,-8.394342422,-4544,85,29403,43577,0
,77686439338177232025102910010003,,0,2,0,0,0,0,0,0,0,7952,156,-2870,-162,-35,-41,-105.4168396,-7.840416431,-4528,85,55198,43578,0
,77686439338177232025102910010003,,0,2,0,0,0,0,0,0,0,8018,122,-2862,-209,-254,-75,-106.7511597,-7.345000267,-4528,85,33486,43579,0
,77686439338177232025102910010003,,0,2,0,0,0,0,0,0,0,6748,1632,-4538,1081,-2916,-270,-123.3055725,-6.022808552,-4496,85,29185,43580,0
,77686439338177232025102910010003,,0,2,0,0,0,0,0,0,0,3060,-1616,-7204,2830,-5685,-790,-158.9472351,9.026098251,-4528,85,55587,43581,0
,77686439338177232025102910010003,,0,2,0,0,0,0,0,0,0,-1886,-4676,-9032,-850,-937,281,-146.3844299,15.15049553,-4496,85,40742,43582,0
,77686439338177232025102910010003,,0,2,0,0,0,0,0,0,0,2066,-522,-7404,-1993,6740,901,-89.04244995,-10.74099636,-4496,86,30443,43583,0
,77686439338177232025102910010003,,0,2,0,0,0,0,0,0,0,4906,428,-6918,-1217,1612,-611,-82.99616241,-18.07501221,-4464,88,39817,43584,0
,77686439338177232025102910010003,,0,2,0,0,0,0,0,0,0,6394,2636,-5506,1197,917,-593,-83.43145752,-14.31071281,-4480,90,50391,43521,0
,77686439338177232025102910010003,,0,2,0,0,0,0,0,0,0,7508,146,-4796,1474,-42,2235,-83.66943359,0.9637003541,-4512,91,12176,43522,0
,77686439338177232025102910010003,,0,2,0,0,0,0,0,0,0,7102,-260,-5258,-430,-111,-481,-91.59793091,6.204617977,-4480,91,15841,43523,0
,77686439338177232025102910010003,,0,2,0,0,0,0,0,0,0,7690,-736,-4114,-251,198,521,-95.78609467,0.6331973076,-4448,91,38169,43524,0
,77686439338177232025102910010003,,0,2,0,0,0,0,0,0,0,6490,-896,-4968,-2382,347,1176,-102.4544144,-12.47979641,-4480,91,56098,43525,0
,77686439338177232025102910010003,,0,2,0,0,0,0,0,0,0,6750,340,-5232,-193,418,-651,-106.6537018,-17.61808968,-4464,91,573,43526,0
,77686439338177232025102910010003,,0,2,0,0,0,0,0,0,0,7236,636,-4584,61,161,-242,-106.4898224,-14.27016735,-4480,91,13142,43527,0
,77686439338177232025102910010003,,0,2,0,0,0,0,0,0,0,7038,592,-4774,-504,-412,152,-110.9822769,-11.58683586,-4448,91,64900,43528,0
,77686439338177232025102910010003,,0,2,0,0,0,0,0,0,0,6920,500,-5068,22,-198,-212,-114.8742828,-7.179776669,-4480,91,23883,43529,0
,77686439338177232025102910010003,,0,2,0,0,0,0,0,0,0,6932,396,-4770,-389,341,190,-115.5111694,-7.792564392,-4448,91,64715,43530,0
,77686439338177232025102910010003,,0,2,0,0,0,0,0,0,0,6806,222,-4772,24,-128,-272,-117.005928,-8.218014717,-4448,91,19673,43531,0
,77686439338177232025102910010003,,0,2,0,0,0,0,0,0,0,7108,258,-4578,565,314,434,-116.5272293,-0.3288528025,-4416,91,57604,43532,0
,77686439338177232025102910010003,,0,2,0,0,0,0,0,0,0,6988,-306,-4634,-363,-116,-120,-115.8665085,-1.756966949,-4416,91,28188,43533,0
,77686439338177232025102910010003,,0,2,0,0,0,0,0,0,0,7260,1626,-4090,369,-2578,750,-123.0522842,-4.480763912,-4416,91,12082,43534,0
,77686439338177232025102910010003,,0,2,0,0,0,0,0,0,0,72,706,-10030,639,-3404,-974,-168.411026,-2.855633974,-4432,91,49573,43535,0
,77686439338177232025102910010003,,0,2,0,0,0,0,0,0,0,1284,1266,-7844,-2021,1341,399,-162.9378357,-8.12338829,-4400,91,42669,43536,0
,77686439338177232025102910010003,,0,2,0,0,0,0,0,0,0,1666,56,-8312,-1015,-111,450,-163.4356384,-7.846545696,-4432,91,21246,43537,0
,77686439338177232025102910010003,,0,2,0,0,0,0,0,0,0,1434,1438,-8444,419,-187,-696,-164.5420532,-8.112413406,-4432,91,40620,43538,0
,77686439338177232025102910010003,,0,2,0,0,0,0,0,0,0,1034,3968,-8758,-1630,-1211,-267,-169.7793732,-17.35803413,-4416,91,1058,43539,0
,77686439338177232025102910010003,,0,2,0,0,0,0,0,0,0,1072,3260,-6808,4414,-976,-797,-167.8369446,-0.7290154099,-4400,91,10934,43540,0
,77686439338177232025102910010003,,0,2,0,0,0,0,0,0,0,680,1184,-8728,1907,2422,1576,-121.2106323,5.850782394,-4416,91,14034,43541,0
,77686439338177232025102910010003,,0,2,0,0,0,0,0,0,0,1732,-750,-8420,628,1320,1006,-123.4157715,13.17834473,-4400,92,11457,43542,0
,77686439338177232025102910010003,,0,2,0,0,0,0,0,0,0,2660,-2434,-7342,273,359,-5,-127.2869415,17.63650894,-4416,93,54597,43543,0
,77686439338177232025102910010003,,0,2,0,0,0,0,0,0,0,3056,-1904,-7284,-3206,487,1107,-129.4707184,6.053575993,-4368,93,41956,43544,0
,77686439338177232025102910010003,,0,2,0,0,0,0,0,0,0,3624,-2190,-7194,-1493,4626,-119,-122.295433,-3.834795952,-4400,93,62971,43545,0
,77686439338177232025102910010003,,0,2,0,0,0,0,0,0,0,7890,-914,-3034,-1962,2434,-655,-92.37756348,-17.88824654,-4368,95,25800,43546,0
,77686439338177232025102910010003,,0,2,0,0,0,0,0,0,0,7692,1100,-2502,-387,207,340,-90.73029327,-20.04684067,-4400,97,58890,43547,0
,77686439338177232025102910010003,,0,2,0,0,0,0,0,0,0,7862,-618,-2334,2216,-426,278,-91.26339722,-5.637300014,-4608,98,44797,43548,0
,77686439338177232025102910010003,,0,2,0,0,0,0,0,0,0,7386,-1364,-3286,909,-627,-505,-100.0899734,5.559049129,-4384,98,3924,43549,0
,77686439338177232025102910010003,,0,2,0,0,0,0,0,0,0,7626,-1338,-3388,-209,-559,-220,-105.7821121,-1.056827307,-4368,98,4278,43550,0
,77686439338177232025102910010003,,0,2,0,0,0,0,0,0,0,6476,-890,-5092,997,-2189,-1007,-119.1478882,-3.189302683,-4608,98,239,43551,0
,77686439338177232025102910010003,,0,2,0,0,0,0,0,0,0,1244,-1282,-8418,2716,-6112,1198,-157.951355,10.88735294,-4304,98,27792,43552,0
,77686439338177232025102910010003,,0,2,0,0,0,0,0,0,0,342,-2516,-8298,-2564,-3,-1748,-173.9886475,0.9112325907,-4112,98,59220,43553,0
,77686439338177232025102910010003,,0,2,0,0,0,0,0,0,0,-446,-3348,-8366,328,-2740,-1293,-171.5260315,2.881222963,-4112,98,8832,43554,0
,77686439338177232025102910010003,,0,2,0,0,0,0,0,0,0,-810,256,-7684,113,-233,-1899,-110.6128845,-11.97046947,-4320,98,21500,43555,0
,77686439338177232025102910010003,,0,2,0,0,0,0,0,0,0,-1086,-2256,-8186,778,272,-689,-79.69560242,-12.61823559,-4336,98,31999,43556,0
,77686439338177232025102910010003,,0,2,0,0,0,0,0,0,0,-806,-1444,-8292,-898,-321,-46,-33.85704803,-14.57123566,-4320,98,10241,43557,0
,77686439338177232025102910010003,,0,2,0,0,0,0,0,0,0,-1206,-1460,-8368,-302,230,-646,2.879393339,-15.28535748,-4336,98,50984,43558,0
,77686439338177232025102910010003,,0,2,0,0,0,0,0,0,0,-2384,1176,-8904,-260,84,-244,29.05385208,-20.22252274,-4304,98,52098,43559,0
,77686439338177232025102910010003,,0,2,0,0,0,0,0,0,0,-638,-802,-7906,-441,-202,-148,56.24876404,-16.11642647,-4336,98,30069,43560,0
,77686439338177232025102910010003,,0,2,0,0,0,0,0,0,0,-988,-772,-8420,-861,-234,165,77.9453125,-11.30831623,-4304,98,53231,43561,0
,77686439338177232025102910010003,,0,2,0,0,0,0,0,0,0,-1372,-1298,-8366,1813,-268,-1947,94.07608032,-6.722409725,-4320,98,58131,43562,0
,77686439338177232025102910010003,,0,2,0,0,0,0,0,0,0,-2744,-638,-7172,-458,-2695,2070,95.94197845,-12.57386303,-4304,98,37263,43563,0
,77686439338177232025102910010003,,0,2,0,0,0,0,0,0,0,-5546,1274,-7658,-1869,-675,1193,92.39222717,-16.08592987,-4304,98,46707,43564,0
,77686439338177232025102910010003,,0,2,0,0,0,0,0,0,0,-5590,-640,-7724,-1033,-102,294,101.0405502,-6.064886093,-4304,98,14947,43565,0
,77686439338177232025102910010003,,0,2,0,0,0,0,0,0,0,-4074,-420,-6898,-173,4475,-1164,120.311348,-7.557543278,-4320,99,50661,43566,0
,77686439338177232025102910010003,,0,2,0,0,0,0,0,0,0,68,-2108,-8390,406,1323,650,131.3746796,-0.9530459642,-4272,101,19371,43567,0
,77686439338177232025102910010003,,0,2,0,0,0,0,0,0,0,1110,-4444,-7516,1016,190,-151,81.09735107,3.21117425,-4304,103,31309,43568,0
,77686439338177232025102910010003,,0,2,0,0,0,0,0,0,0,1600,-3390,-7124,460,-128,276,37.29789352,0.2986575365,-4288,104,60417,43569,0
,77686439338177232025102910010003,,0,2,0,0,0,0,0,0,0,-6,-1056,-8584,-797,-405,70,28.24546051,-18.59503937,-4272,104,292,43570,0
,77686439338177232025102910010003,,0,2,0,0,0,0,0,0,0,320,-1744,-7528,725,722,147,29.95850372,-13.22010994,-4272,104,49996,43571,0
,77686439338177232025102910010003,,0,2,0,0,0,0,0,0,0,-1902,-508,-7452,-1166,-3886,1346,32.18505478,-23.25223351,-4256,104,31474,43572,0
,77686439338177232025102910010003,,0,2,0,0,0,0,0,0,0,-5932,2240,-7312,-1156,-528,-899,34.93959427,-33.85864639,-4272,104,32403,43573,0
,77686439338177232025102910010003,,0,2,0,0,0,0,0,0,0,-5566,778,-6726,1385,-263,125,52.72286224,-25.83914566,-4288,104,41611,43574,0
,77686439338177232025102910010003,,0,2,0,0,0,0,0,0,0,-5120,-1702,-7230,-1276,215,1464,70.68238068,-10.64386845,-4272,104,63988,43575,0
,77686439338177232025102910010003,,0,2,0,0,0,0,0,0,0,-3996,-1826,-7494,733,941,118,93.09391785,-4.726848602,-4272,104,42944,43576,0
,77686439338177232025102910010003,,0,2,0,0,0,0,0,0,0,-3766,-614,-7980,-3009,1159,-1934,105.1708145,-20.51120758,-4288,104,26092,43577,0
,77686439338177232025102910010003,,0,2,0,0,0,0,0,0,0,-2510,884,-7258,-447,-678,-5397,122.8935623,-27.94192886,-4256,105,11508,43578,0
,77686439338177232025102910010003,,0,2,0,0,0,0,0,0,0,-4658,1716,-9154,349,2917,-4938,129.6285706,-40.91372681,-4224,105,34142,43579,0
,77686439338177232025102910010003,,0,2,0,0,0,0,0,0,0,-2006,10,-9326,89,1866,-3716,152.9609528,-30.72256088,-4240,106,9114,43580,0
,77686439338177232025102910010003,,0,2,0,0,0,0,0,0,0,-1316,-2902,-7650,1539,-3358,364,103.4075775,-15.26437187,-4240,108,32613,43581,0
,77686439338177232025102910010003,,0,2,0,0,0,0,0,0,0,-1794,-2030,-8106,-454,58,645,110.6421509,-16.06157494,-4240,108,52441,43582,0
,77686439338177232025102910010003,,0,2,0,0,0,0,0,0,0,-1232,-3070,-7944,163,329,-229,123.7787476,-18.14743996,-4240,108,47351,43583,0
,77686439338177232025102910010003,,0,2,0,0,0,0,0,0,0,-2296,-3502,-7912,-1188,1361,-1505,131.984024,-18.94696426,-4256,108,12162,43584,0
,77686439338177232025102910010003,,0,2,0,0,0,0,0,0,0,-154,-2340,-8168,793,-697,-339,105.3842392,-21.08261108,-4208,109,8775,43521,0
,77686439338177232025102910010003,,0,2,0,0,0,0,0,0,0,-136,-2316,-7734,-571,131,248,116.3734131,-20.77734184,-4224,109,47610,43522,0
,77686439338177232025102910010003,,0,2,0,0,0,0,0,0,0,-594,-3136,-7884,168,-10,-312,125.9483032,-18.36791039,-4224,109,25747,43523,0
,77686439338177232025102910010003,,0,2,0,0,0,0,0,0,0,-702,-522,-7418,-3484,5458,-2537,146.8569946,-31.56660271,-4192,109,43870,43524,0
,77686439338177232025102910010003,,0,2,0,0,0,0,0,0,0,5868,58,-5650,-1329,2437,-186,121.1090317,-34.79181671,-4208,111,59754,43525,0
,77686439338177232025102910010003,,0,2,0,0,0,0,0,0,0,6742,1066,-5424,-307,602,-655,84.32341003,-29.25777435,-4192,113,34904,43526,0
,77686439338177232025102910010003,,0,2,0,0,0,0,0,0,0,6978,1174,-5080,205,306,-388,48.76879501,-23.03873634,-4176,114,36887,43527,0
,77686439338177232025102910010003,,0,2,0,0,0,0,0,0,0,6744,1908,-5256,-368,-830,196,15.53919411,-20.27502441,-4176,114,28842,43528,0
,77686439338177232025102910010003,,0,2,0,0,0,0,0,0,0,5224,1136,-6408,-381,330,-209,-23.3841095,-15.20368862,-4176,114,35533,43529,0
,77686439338177232025102910010003,,0,2,0,0,0,0,0,0,0,5740,814,-6370,-192,145,323,-42.98298645,-13.19521713,-4176,114,60330,43530,0
,77686439338177232025102910010003,,0,2,0,0,0,0,0,0,0,5652,1022,-5934,79,132,-200,-58.72351074,-11.19439316,-4192,114,18610,43531,0
,77686439338177232025102910010003,,0,2,0,0,0,0,0,0,0,5838,1126,-6084,-45,296,-76,-72.99230957,-8.519802094,-4192,114,60931,43532,0
,77686439338177232025102910010003,,0,2,0,0,0,0,0,0,0,6314,914,-5818,-247,424,309,-83.11923218,-6.986769199,-4160,114,3034,43533,0
,77686439338177232025102910010003,,0,2,0,0,0,0,0,0,0,6032,820,-5876,-650,-58,-11,-92.03831482,-6.565989971,-4144,114,48084,43534,0
,77686439338177232025102910010003,,0,2,0,0,0,0,0,0,0,6228,1028,-5950,-179,-24,6,-99.41694641,-6.179493904,-4160,114,29503,43535,0
,77686439338177232025102910010003,,0,2,0,0,0,0,0,0,0,6398,-254,-5882,-407,1,-551,-104.3875809,-3.613342762,-4160,114,55658,43536,0
,77686439338177232025102910010003,,0,2,0,0,0,0,0,0,0,6548,1808,-5626,-464,-89,216,-109.5137939,-5.898667336,-4160,114,29454,43537,0
,77686439338177232025102910010003,,0,2,0,0,0,0,0,0,0,6296,1028,-5750,-201,-296,47,-114.982132,-5.489090443,-4144,114,25657,43538,0
,77686439338177232025102910010003,,0,2,0,0,0,0,0,0,0,6144,1692,-5800,583,122,335,-118.8918686,-5.681471348,-4160,114,38581,43539,0
,77686439338177232025102910010003,,0,2,0,0,0,0,0,0,0,5984,1104,-6020,-1130,-350,518,-122.3404388,-5.677964211,-4160,114,9899,43540,0
,77686439338177232025102910010003,,0,2,0,0,0,0,0,0,0,6014,1054,-5956,-46,196,123,-124.5569,-4.774311066,-4128,114,12267,43541,0
,77686439338177232025102910010003,,0,2,0,0,0,0,0,0,0,6384,682,-5766,-1697,-429,-270,-127.0706787,-6.622597694,-4144,114,33184,43542,0
,77686439338177232025102910010003,,0,2,0,0,0,0,0,0,0,5800,1276,-6306,439,88,-493,-129.8361053,-6.096496105,-4112,114,37942,43543,0
,77686439338177232025102910010003,,0,2,0,0,0,0,0,0,0,6286,1372,-5784,220,374,285,-129.2270355,-3.060441017,-4128,114,37605,43544,0
,77686439338177232025102910010003,,0,2,0,0,0,0,0,0,0,6290,966,-5926,302,281,226,-128.6898346,0.8529543281,-4112,114,11816,43545,0
,77686439338177232025102910010003,,0,2,0,0,0,0,0,0,0,6322,1016,-5666,-251,808,107,-128.5171814,1.247800231,-4128,114,41353,43546,0
,77686439338177232025102910010003,,0,2,0,0,0,0,0,0,0,6686,1118,-5410,-1204,579,-211,-125.2802277,0.3492496908,-4352,114,12367,43547,0
,77686439338177232025102910010003,,0,2,0,0,0,0,0,0,0,6676,1378,-5166,358,224,-266,-124.79319,0.7980245352,-4112,114,44816,43548,0
,77686439338177232025102910010003,,0,2,0,0,0,0,0,0,0,6710,1448,-5214,-34,-381,449,-125.3418732,2.337581396,-4144,115,5466,43549,0
,77686439338177232025102910010003,,0,2,0,0,0,0,0,0,0,6578,1376,-5058,139,-954,-458,-128.2527771,2.444893837,-4128,115,30095,43550,0
,77686439338177232025102910010003,,0,2,0,0,0,0,0,0,0,6922,698,-5098,-982,-360,-487,-130.9506683,6.115894794,-4112,115,64439,43551,0
,77686439338177232025102910010003,,0,2,0,0,0,0,0,0,0,6370,670,-5806,-390,-11,-153,-130.1158752,3.265521288,-4112,115,61684,43552,0
,77686439338177232025102910010003,,0,2,0,0,0,0,0,0,0,7332,960,-4834,-441,-156,-163,-128.9678802,4.16954422,-4352,115,45384,43553,0
,77686439338177232025102910010003,,0,2,0,0,0,0,0,0,0,868,2044,-9416,765,-3432,1257,-154.8508759,7.972603321,-4080,115,40854,43554,0
,77686439338177232025102910010003,,0,2,0,0,0,0,0,0,0,4630,104,-6550,465,3516,-1435,-131.7455139,7.603003025,-4352,115,56540,43555,0
,77686439338177232025102910010003,,0,2,0,0,0,0,0,0,0,7030,-550,-5228,-2,1084,-107,-117.7005768,5.656898975,-4080,117,7862,43556,0
,77686439338177232025102910010003,,0,2,0,0,0,0,0,0,0,6796,-420,-5230,37,265,-129,-116.5366058,3.202480793,-4048,118,57402,43557,0
,77686439338177232025102910010003,,0,2,0,0,0,0,0,0,0,6988,-146,-4934,-273,-239,-274,-117.7653427,0.1589538604,-4064,118,43312,43558,0
,77686439338177232025102910010003,,0,2,0,0,0,0,0,0,0,6358,818,-6092,337,-3043,-846,-131.3687592,-2.227707863,-4080,118,54234,43559,0
,77686439338177232025102910010003,,0,2,0,0,0,0,0,0,0,5992,156,-6278,-88,-28,-151,-133.721344,0.4094268084,-4080,118,46943,43560,0
,77686439338177232025102910010003,,0,2,0,0,0,0,0,0,0,5914,370,-6330,6,365,-53,-133.3935852,-0.09460070729,-4064,118,11237,43561,0
,77686439338177232025102910010003,,0,2,0,0,0,0,0,0,0,6022,158,-6310,-281,111,-22,-133.2718964,-1.52154243,-4048,118,50594,43562,0
,77686439338177232025102910010003,,0,2,0,0,0,0,0,0,0,6202,650,-6234,-226,-44,-378,-133.0832367,-2.486688137,-4080,118,30061,43563,0
,77686439338177232025102910010003,,0,2,0,0,0,0,0,0,0,6528,-130,-5838,63,235,-109,-132.466217,1.222722769,-4064,118,19724,43564,0
,77686439338177232025102910010003,,0,2,0,0,0,0,0,0,0,6656,-298,-5864,-477,210,22,-129.191803,-0.9762214422,-4064,118,39749,43565,0
,77686439338177232025102910010003,,0,2,0,0,0,0,0,0,0,6472,100,-5802,-80,-535,-119,-131.0012054,-1.443565607,-4048,118,61926,43566,0
,77686439338177232025102910010003,,0,2,0,0,0,0,0,0,0,6454,-444,-5606,99,848,-84,-128.7629547,-1.334669352,-4048,118,35158,43567,0
,77686439338177232025102910010003,,0,2,0,0,0,0,0,0,0,6986,-88,-5154,113,-416,-197,-128.3431091,-1.86710906,-4032,118,60526,43568,0
,77686439338177232025102910010003,,0,2,0,0,0,0,0,0,0,6354,184,-5580,-561,437,618,-128.1791534,-4.495566845,-4048,118,32843,43569,0
,77686439338177232025102910010003,,0,2,0,0,0,0,0,0,0,6630,92,-5350,-583,469,226,-127.3749619,-6.123711586,-4032,118,19931,43570,0
,77686439338177232025102910010003,,0,2,0,0,0,0,0,0,0,6768,-374,-5274,-255,-29,49,-127.5275955,-6.378790855,-4032,118,48739,43571,0
,77686439338177232025102910010003,,0,2,0,0,0,0,0,0,0,6722,16,-5294,-238,108,-139,-127.4003448,-7.251220226,-4016,118,9348,43572,0
,77686439338177232025102910010003,,0,2,0,0,0,0,0,0,0,6864,8,-5358,-10,303,-61,-129.2007904,-7.675953865,-4016,118,18761,43573,0
,77686439338177232025102910010003,,0,2,0,0,0,0,0,0,0,7090,6,-5170,-137,259,-61,-128.345871,-7.226362705,-4000,118,33521,43574,0
,77686439338177232025102910010003,,0,2,0,0,0,0,0,0,0,6410,-930,-5514,-1057,-458,-363,-129.3976746,-7.688601971,-4016,118,29808,43575,0
,77686439338177232025102910010003,,0,2,0,0,0,0,0,0,0,5640,-328,-6238,-149,-657,-272,-133.4774017,-7.339712143,-4016,118,49142,43576,0
,77686439338177232025102910010003,,0,2,0,0,0,0,0,0,0,6016,-234,-5852,-166,253,-619,-132.9881134,-7.282512188,-4048,118,24706,43577,0
,77686439338177232025102910010003,,0,2,0,0,0,0,0,0,0,6026,330,-6242,107,328,209,-134.1176758,-8.765353203,-4000,118,64920,43578,0
,77686439338177232025102910010003,,0,2,0,0,0,0,0,0,0,6192,66,-5702,-506,-108,-617,-132.2548523,-8.35838604,-4016,118,25920,43579,0
,77686439338177232025102910010003,,0,2,0,0,0,0,0,0,0,6358,-228,-5634,-480,-68,-67,-132.4145355,-7.30511713,-3984,118,1436,43580,0
,77686439338177232025102910010003,,0,2,0,0,0,0,0,0,0,6178,-72,-5558,-732,192,1016,-132.0926208,-6.997604847,-4000,118,17042,43581,0
,77686439338177232025102910010003,,0,2,0,0,0,0,0,0,0,4834,-306,-5724,631,-5468,1585,-151.1498871,-7.51781559,-3984,118,30900,43582,0
,77686439338177232025102910010003,,0,2,0,0,0,0,0,0,0,-3646,-3322,-9660,-1494,-575,-1191,-147.7195892,-3.944692612,-3984,118,33858,43583,0
,77686439338177232025102910010003,,0,2,0,0,0,0,0,0,0,2790,-1426,-7520,-1812,3435,606,-100.3746948,-15.88009644,-3984,119,55924,43584,0
,77686439338177232025102910010003,,0,2,0,0,0,0,0,0,0,4268,452,-7610,-97,583,624,-96.58090973,-24.00074577,-3984,121,8309,43521,0
,77686439338177232025102910010003,,0,2,0,0,0,0,0,0,0,5842,-338,-6198,-50,1778,-1193,-96.58087921,-15.47856236,-3936,123,7514,43522,0
,77686439338177232025102910010003,,0,2,0,0,0,0,0,0,0,6670,394,-5464,73,750,-759,-95.43777466,-10.99957561,-3952,124,14326,43523,0
,77686439338177232025102910010003,,0,2,0,0,0,0,0,0,0,6740,210,-5256,-519,329,112,-98.6135025,-10.87349892,-3984,124,6892,43524,0
,77686439338177232025102910010003,,0,2,0,0,0,0,0,0,0,4682,-484,-7128,944,-3560,485,-120.2176285,-3.37983489,-3952,124,4860,43525,0
,77686439338177232025102910010003,,0,2,0,0,0,0,0,0,0,4764,-974,-7018,-408,482,475,-122.577034,-2.95720768,-3952,124,41499,43526,0
,77686439338177232025102910010003,,0,2,0,0,0,0,0,0,0,5204,-370,-6578,370,-397,-142,-123.5845261,-3.911316872,-3968,124,37174,43527,0
,77686439338177232025102910010003,,0,2,0,0,0,0,0,0,0,5550,-542,-6350,-2499,1221,547,-123.992981,-10.32066059,-3952,125,46375,43528,0
,77686439338177232025102910010003,,0,2,0,0,0,0,0,0,0,6106,686,-5808,-618,-1445,2366,-125.0431976,-7.788219929,-3968,125,49288,43529,0
,77686439338177232025102910010003,,0,2,0,0,0,0,0,0,0,3668,-228,-7810,3,-491,-1283,-140.4267273,-12.13061905,-3984,125,18087,43530,0
,77686439338177232025102910010003,,0,2,0,0,0,0,0,0,0,5346,-726,-6662,1712,1383,-737,-133.8674927,-6.061583042,-3984,125,38145,43531,0
,77686439338177232025102910010003,,0,2,0,0,0,0,0,0,0,6218,-1468,-5942,-580,591,-1668,-125.6832581,-2.68023777,-3984,126,51239,43532,0
,77686439338177232025102910010003,,0,2,0,0,0,0,0,0,0,6204,232,-5508,308,-4645,-142,-137.5740509,-1.972540379,-3936,127,43067,43533,0
,77686439338177232025102910010003,,0,2,0,0,0,0,0,0,0,2682,-926,-6600,-414,2916,249,-145.0575104,-1.926556587,-3920,127,15568,43534,0
,77686439338177232025102910010003,,0,2,0,0,0,0,0,0,0,7098,-1308,-4940,759,1116,-837,-127.0690994,1.263203502,-3904,128,18976,43535,0
,77686439338177232025102910010003,,0,2,0,0,0,0,0,0,0,6074,-1290,-5928,37,-60,-64,-131.8291626,4.122542381,-3904,129,58243,43536,0
,77686439338177232025102910010003,,0,2,0,0,0,0,0,0,0,7076,-232,-4600,-622,775,92,-123.7606812,-1.841905594,-3952,129,32739,43537,0
,77686439338177232025102910010003,,0,2,0,0,0,0,0,0,0,7472,-680,-4594,-484,-462,-332,-125.7880249,-4.447592258,-3936,130,23466,43538,0
,77686439338177232025102910010003,,0,2,0,0,0,0,0,0,0,6644,-398,-5048,1059,93,-1348,-126.422554,0.1597713977,-3920,130,510,43539,0
,77686439338177232025102910010003,,0,2,0,0,0,0,0,0,0,6620,510,-5360,2753,-68,-3135,-128.4423218,16.06694794,-3904,130,23729,43540,0
,77686439338177232025102910010003,,0,2,0,0,0,0,0,0,0,6652,672,-5314,-54,144,199,-126.9879684,22.55504799,-3856,130,46584,43541,0
,77686439338177232025102910010003,,0,2,0,0,0,0,0,0,0,7530,622,-4670,-1596,501,835,-122.8613281,12.11748505,-3888,130,47112,43542,0
,77686439338177232025102910010003,,0,2,0,0,0,0,0,0,0,7974,936,-5284,218,66,-658,-126.3443756,8.203943253,-3920,130,9288,43543,0
,77686439338177232025102910010003,,0,2,0,0,0,0,0,0,0,4010,702,-4858,-834,-9102,-1644,-153.3554993,5.56984663,-3904,131,4501,43544,0
,77686439338177232025102910010003,,0,2,0,0,0,0,0,0,0,-1994,1370,-7958,1380,154,4320,-142.5410156,4.989989281,-3872,131,28912,43545,0
,77686439338177232025102910010003,,0,2,0,0,0,0,0,0,0,-246,-120,-9130,397,3399,4483,-71.91372681,10.08200645,-3888,131,51606,43546,0
,77686439338177232025102910010003,,0,2,0,0,0,0,0,0,0,6330,-3540,-5952,2131,-1562,1102,-65.42763519,17.85506821,-3872,133,30397,43547,0
,77686439338177232025102910010003,,0,2,0,0,0,0,0,0,0,-1764,-4200,-8300,20,-1001,837,-73.40314484,13.91446781,-3888,133,15907,43548,0
,77686439338177232025102910010003,,0,2,0,0,0,0,0,0,0,-458,-2536,-8062,1605,-252,-907,-30.00900078,4.822980881,-3600,133,31975,43549,0
,77686439338177232025102910010003,,0,2,0,0,0,0,0,0,0,2096,-2030,-7416,-2369,5045,-1107,13.83643532,-10.39318752,-3872,134,38664,43550,0
,77686439338177232025102910010003,,0,2,0,0,0,0,0,0,0,6684,-212,-5230,-521,1827,-1827,10.47114658,-14.28947258,-3872,136,16428,43551,0
,77686439338177232025102910010003,,0,2,0,0,0,0,0,0,0,7660,-224,-5140,323,694,-1046,-8.475067139,-13.66464138,-3872,138,38462,43552,0
,77686439338177232025102910010003,,0,2,0,0,0,0,0,0,0,6670,566,-5000,994,365,-730,-28.60236549,-7.398759842,-3872,138,27655,43553,0
,77686439338177232025102910010003,,0,2,0,0,0,0,0,0,0,7300,-36,-4444,1166,344,-618,-43.29096985,5.159730911,-3840,138,23746,43554,0
,77686439338177232025102910010003,,0,2,0,0,0,0,0,0,0,7324,-870,-4230,-666,-64,42,-56.75550842,3.605965137,-3600,138,59551,43555,0
,77686439338177232025102910010003,,0,2,0,0,0,0,0,0,0,7514,2200,-3900,-3674,-1224,2726,-70.66941833,-17.42664337,-3600,138,525,43556,0
,77686439338177232025102910010003,,0,2,0,0,0,0,0,0,0,6114,572,-5876,-848,-611,131,-90.85305023,-21.85658455,-4096,138,44230,43557,0
,77686439338177232025102910010003,,0,2,0,0,0,0,0,0,0,6014,1352,-5550,18,-1065,729,-102.3063507,-18.32920265,-3824,138,63450,43558,0
,77686439338177232025102910010003,,0,2,0,0,0,0,0,0,0,6490,968,-5904,-268,298,539,-108.822464,-14.60183716,-4096,138,32155,43559,0
,77686439338177232025102910010003,,0,2,0,0,0,0,0,0,0,5726,830,-6392,-44,127,-542,-113.2725906,-10.94289017,-3872,138,11017,43560,0
,77686439338177232025102910010003,,0,2,0,0,0,0,0,0,0,6480,966,-5556,-33,414,34,-113.9402161,-8.437637329,-3600,138,16478,43561,0
,77686439338177232025102910010003,,0,2,0,0,0,0,0,0,0,5932,982,-5688,174,-511,-516,-118.6535492,-6.700731277,-3824,138,33163,43562,0
,77686439338177232025102910010003,,0,2,0,0,0,0,0,0,0,6414,1004,-5882,418,9,594,-121.7393417,-2.739524603,-3600,138,59248,43563,0
,77686439338177232025102910010003,,0,2,0,0,0,0,0,0,0,5988,38,-6026,-298,273,173,-124.9160614,-2.479020357,-3824,138,16035,43564,0
,77686439338177232025102910010003,,0,2,0,0,0,0,0,0,0,6184,60,-6060,-197,-136,-351,-127.2937546,-3.297395706,-3824,138,6567,43565,0
,77686439338177232025102910010003,,0,2,0,0,0,0,0,0,0,6034,810,-6008,-176,412,-390,-126.6080475,-3.836061239,-3808,138,49547,43566,0
,77686439338177232025102910010003,,0,2,0,0,0,0,0,0,0,6344,830,-5802,-448,272,174,-126.509758,-5.192488194,-3808,138,51330,43567,0
,77686439338177232025102910010003,,0,2,0,0,0,0,0,0,0,6460,198,-5526,-452,78,-336,-126.6413498,-2.535087824,-3840,138,45354,43568,0
,77686439338177232025102910010003,,0,2,0,0,0,0,0,0,0,6222,810,-5726,-568,-129,300,-128.6919403,-3.759130001,-3840,138,1281,43569,0
,77686439338177232025102910010003,,0,2,0,0,0,0,0,0,0,6400,1292,-5486,-297,279,-66,-127.4467697,-4.117065907,-3808,138,45258,43570,0
,77686439338177232025102910010003,,0,2,0,0,0,0,0,0,0,6412,686,-5406,-160,24,-60,-127.2112656,-2.750248432,-3792,138,3800,43571,0
,77686439338177232025102910010003,,0,2,0,0,0,0,0,0,0,6622,1250,-5180,-881,-229,-59,-126.3867645,-1.837354779,-3792,138,19621,43572,0
,77686439338177232025102910010003,,0,2,0,0,0,0,0,0,0,6398,1002,-5394,33,-98,-61,-127.1800461,-0.5929967165,-3776,138,64034,43573,0
,77686439338177232025102910010003,,0,2,0,0,0,0,0,0,0,6880,1200,-5156,210,-67,6,-125.953331,-0.3617161512,-3792,138,34595,43574,0
,77686439338177232025102910010003,,0,2,0,0,0,0,0,0,0,6614,982,-5168,19,154,-113,-126.6050186,-0.08834630251,-3792,138,22663,43575,0
,77686439338177232025102910010003,,0,2,0,0,0,0,0,0,0,6710,1292,-5202,-810,226,17,-126.8392029,0.04765065014,-3776,138,26460,43576,0
,77686439338177232025102910010003,,0,2,0,0,0,0,0,0,0,7024,930,-5106,-395,368,-352,-127.1556244,-0.6299811006,-3808,138,20770,43577,0
,77686439338177232025102910010003,,0,2,0,0,0,0,0,0,0,6852,960,-4928,-1302,-41,-167,-127.0492935,-1.529734492,-3776,138,4171,43578,0
,77686439338177232025102910010003,,0,2,0,0,0,0,0,0,0,6918,1328,-4950,-31,-142,104,-126.6020966,-1.086845994,-3808,138,47051,43579,0
,77686439338177232025102910010003,,0,2,0,0,0,0,0,0,0,6516,624,-5698,-439,325,16,-130.1797638,-0.07968275249,-3824,138,13549,43580,0
,77686439338177232025102910010003,,0,2,0,0,0,0,0,0,0,6798,1156,-5226,122,1257,-557,-125.1981277,-1.696995497,-3792,138,3374,43581,0
,77686439338177232025102910010003,,0,2,0,0,0,0,0,0,0,7586,512,-4820,-1018,-258,-43,-123.185173,-1.512544394,-3760,138,47476,43582,0
,77686439338177232025102910010003,,0,2,0,0,0,0,0,0,0,6960,820,-4902,514,-909,-742,-121.3861923,1.571699977,-3792,138,47543,43583,0
,77686439338177232025102910010003,,0,2,0,0,0,0,0,0,0,7354,480,-4678,3352,-1638,-597,-125.970665,16.17041206,-3776,138,13055,43584,0
,77686439338177232025102910010003,,0,2,0,0,0,0,0,0,0,5740,-1232,-6006,187,893,1270,-129.9912567,16.20702553,-3744,138,2601,43521,0
,77686439338177232025102910010003,,0,2,0,0,0,0,0,0,0,7392,-1302,-4426,-558,1279,-299,-120.6959305,4.95554924,-3744,138,62031,43522,0
,77686439338177232025102910010003,,0,2,0,0,0,0,0,0,0,7256,-854,-4244,-727,336,-197,-117.1291809,-1.368317842,-3760,138,24031,43523,0
,77686439338177232025102910010003,,0,2,0,0,0,0,0,0,0,7300,-116,-4272,138,-1,-407,-117.0117111,-5.075386047,-3712,138,59402,43524,0
,77686439338177232025102910010003,,0,2,0,0,0,0,0,0,0,7470,-372,-4014,-509,-87,146,-117.2183838,-3.225433588,-3728,138,23498,43525,0
,77686439338177232025102910010003,,0,2,0,0,0,0,0,0,0,7614,-174,-4098,188,44,-163,-117.3487473,-4.806741714,-3712,138,60595,43526,0
,77686439338177232025102910010003,,0,2,0,0,0,0,0,0,0,7598,-50,-3862,-384,158,42,-117.0510559,-4.544223309,-3728,138,55495,43527,0
,77686439338177232025102910010003,,0,2,0,0,0,0,0,0,0,7680,-582,-3706,-359,-131,-78,-116.7390518,-5.317103863,-3744,138,42415,43528,0
,77686439338177232025102910010003,,0,2,0,0,0,0,0,0,0,7548,-380,-3672,-94,14,-127,-116.5574951,-5.626419067,-3712,138,63435,43529,0
,77686439338177232025102910010003,,0,2,0,0,0,0,0,0,0,7582,-74,-3614,-207,91,52,-115.7870407,-4.948853493,-3712,138,28806,43530,0
,77686439338177232025102910010003,,0,2,0,0,0,0,0,0,0,7718,250,-3710,53,-571,185,-116.7097168,-5.753697395,-3728,138,23049,43531,0
,77686439338177232025102910010003,,0,2,0,0,0,0,0,0,0,6578,1588,-5876,-478,-3835,-2181,-135.3584442,-10.74304771,-3712,138,14907,43532,0
,77686439338177232025102910010003,,0,2,0,0,0,0,0,0,0,5854,822,-6124,20,-152,0,-137.9858398,-5.543047428,-3712,138,63771,43533,0
,77686439338177232025102910010003,,0,2,0,0,0,0,0,0,0,5782,726,-6246,92,261,-310,-137.9771118,-3.651806116,-3696,138,17047,43534,0
,77686439338177232025102910010003,,0,2,0,0,0,0,0,0,0,5592,430,-6326,117,142,-68,-136.4674072,-2.790614843,-3744,138,3063,43535,0
,77686439338177232025102910010003,,0,2,0,0,0,0,0,0,0,6212,628,-6040,823,302,332,-134.819046,-2.445990562,-3728,138,31201,43536,0
,77686439338177232025102910010003,,0,2,0,0,0,0,0,0,0,5788,176,-6232,-784,461,515,-136.4402771,0.5911580324,-3664,138,30440,43537,0
,77686439338177232025102910010003,,0,2,0,0,0,0,0,0,0,5940,554,-6264,-125,16,-145,-136.3161926,-1.59356606,-3712,138,9796,43538,0
,77686439338177232025102910010003,,0,2,0,0,0,0,0,0,0,6162,770,-5836,131,289,237,-135.9786835,-1.160316467,-3696,138,23207,43539,0
,77686439338177232025102910010003,,0,2,0,0,0,0,0,0,0,6074,552,-5986,-279,-62,98,-134.7385712,-2.825380802,-3664,138,12986,43540,0
,77686439338177232025102910010003,,0,2,0,0,0,0,0,0,0,5972,450,-6192,251,-112,43,-135.3374939,-3.326802492,-3664,138,14784,43541,0
,77686439338177232025102910010003,,0,2,0,0,0,0,0,0,0,6296,814,-6050,135,134,82,-134.2994232,-5.936339378,-3680,138,39011,43542,0
,77686439338177232025102910010003,,0,2,0,0,0,0,0,0,0,6220,656,-5780,271,225,23,-131.7499084,-2.55744195,-3680,138,36195,43543,0
,77686439338177232025102910010003,,0,2,0,0,0,0,0,0,0,6898,-324,-5374,-443,38,-435,-131.5065155,-2.242477894,-3664,138,44394,43544,0
,77686439338177232025102910010003,,0,2,0,0,0,0,0,0,0,6398,486,-5602,-27,534,-171,-131.9208984,-3.217238665,-3680,138,38428,43545,0
,77686439338177232025102910010003,,0,2,0,0,0,0,0,0,0,6674,-234,-5272,-394,158,320,-128.9970551,-3.250159502,-3648,138,26735,43546,0
,77686439338177232025102910010003,,0,2,0,0,0,0,0,0,0,6864,-70,-5180,-314,-9,-136,-127.1296997,-3.784165144,-3664,138,57081,43547,0
,77686439338177232025102910010003,,0,2,0,0,0,0,0,0,0,6438,578,-5280,-80,428,207,-126.8637695,-4.774783611,-3680,138,42035,43548,0
,77686439338177232025102910010003,,0,2,0,0,0,0,0,0,0,6552,-1202,-5506,27,306,-342,-130.6873016,-0.4915120006,-3632,138,31231,43549,0
,77686439338177232025102910010003,,0,2,0,0,0,0,0,0,0,6692,-580,-5198,1121,-437,-170,-129.8416595,0.4735080004,-3664,138,47401,43550,0
,77686439338177232025102910010003,,0,2,0,0,0,0,0,0,0,6588,-1474,-5710,-939,162,-197,-131.6802979,-2.285050392,-3616,138,21392,43551,0
,77686439338177232025102910010003,,0,2,0,0,0,0,0,0,0,6798,-776,-4666,-1947,-4902,3750,-140.2682343,-16.9899025,-3632,139,28140,43553,0
,77686439338177232025102910010003,,0,2,0,0,0,0,0,0,0,-2462,1416,-9614,1358,-1996,-277,-147.5092621,-30.61073875,-3616,139,54924,43554,0
,77686439338177232025102910010003,,0,2,0,0,0,0,0,0,0,-1686,-1168,-8238,-599,-717,582,-94.35584259,-21.62292862,-3600,139,36405,43555,0
,77686439338177232025102910010003,,0,2,0,0,0,0,0,0,0,-2136,-942,-8886,-157,3713,-1198,-39.62269592,-21.4602108,-3664,139,29224,43556,0
,77686439338177232025102910010003,,0,2,0,0,0,0,0,0,0,4272,-396,-6900,117,4755,-2600,-18.76341629,-19.82268333,-3600,141,26844,43557,0
,77686439338177232025102910010003,,0,2,0,0,0,0,0,0,0,7488,1214,-4644,-633,1422,-957,-21.01588821,-17.81407356,-3616,143,17206,43558,0
,77686439338177232025102910010003,,0,2,0,0,0,0,0,0,0,6740,1280,-5440,79,-116,168,-39.53302002,-14.45346355,-3616,144,20411,43559,0
,77686439338177232025102910010003,,0,2,0,0,0,0,0,0,0,6770,1144,-5036,-300,487,-61,-55.64726257,-12.31212807,-3616,144,17413,43560,0
,77686439338177232025102910010003,,0,2,0,0,0,0,0,0,0,7180,1016,-4672,-1801,-264,1269,-67.27803802,-14.32262707,-3632,144,44782,43561,0
,77686439338177232025102910010003,,0,2,0,0,0,0,0,0,0,6534,1654,-5206,-360,-335,-188,-80.86345673,-17.94019699,-3632,144,54609,43562,0
,77686439338177232025102910010003,,0,2,0,0,0,0,0,0,0,6330,1166,-5284,-194,-2324,1263,-94.68455505,-14.2559824,-3632,144,30721,43563,0
,77686439338177232025102910010003,,0,2,0,0,0,0,0,0,0,5742,1210,-6008,-1,597,-50,-105.4961014,-12.9553709,-3616,144,49739,43564,0
,77686439338177232025102910010003,,0,2,0,0,0,0,0,0,0,6092,1520,-6016,-695,-101,169,-110.3540878,-12.90817547,-3840,144,1840,43565,0
,77686439338177232025102910010003,,0,2,0,0,0,0,0,0,0,6300,760,-5934,80,247,-30,-114.5524368,-7.993710518,-3584,144,62165,43566,0
,77686439338177232025102910010003,,0,2,0,0,0,0,0,0,0,6248,770,-5780,71,236,186,-117.4589386,-5.213187218,-3600,144,2297,43567,0
,77686439338177232025102910010003,,0,2,0,0,0,0,0,0,0,5652,192,-6442,-541,187,-182,-120.2758789,-3.298305035,-3584,144,15518,43568,0
,77686439338177232025102910010003,,0,2,0,0,0,0,0,0,0,5334,912,-6202,-383,-584,658,-125.2142105,-3.940463781,-3584,144,52462,43569,0
,77686439338177232025102910010003,,0,2,0,0,0,0,0,0,0,5782,1452,-6040,-436,-163,178,-126.5341263,-3.524887085,-3824,144,31987,43570,0
,77686439338177232025102910010003,,0,2,0,0,0,0,0,0,0,6420,776,-5814,1074,-204,-662,-129.9512177,-1.343857169,-3568,144,2793,43571,0
,77686439338177232025102910010003,,0,2,0,0,0,0,0,0,0,3354,1528,-8306,1426,-4153,950,-149.6638947,5.257674217,-3840,144,52461,43572,0
,77686439338177232025102910010003,,0,2,0,0,0,0,0,0,0,3966,368,-6298,973,4191,-1277,-109.3981781,5.98688221,-3568,145,50430,43573,0
,77686439338177232025102910010003,,0,2,0,0,0,0,0,0,0,6864,-934,-5468,-350,551,-407,-99.76394653,6.365496635,-3584,147,18909,43574,0
,77686439338177232025102910010003,,0,2,0,0,0,0,0,0,0,7220,-348,-4844,241,32,-306,-101.0964966,5.204786777,-3568,147,25979,43575,0
,77686439338177232025102910010003,,0,2,0,0,0,0,0,0,0,6630,-182,-5516,-746,-947,-675,-108.8416672,2.814144135,-3584,147,30078,43576,0
,77686439338177232025102910010003,,0,2,0,0,0,0,0,0,0,5524,714,-6442,-68,250,-143,-121.735733,1.724834085,-3552,147,8783,43577,0
,77686439338177232025102910010003,,0,2,0,0,0,0,0,0,0,5700,750,-6802,67,217,10,-125.0404739,1.505662322,-3568,147,16829,43578,0
,77686439338177232025102910010003,,0,2,0,0,0,0,0,0,0,6280,814,-5910,-193,727,310,-124.3634567,0.6204497814,-3584,147,15203,43579,0
,77686439338177232025102910010003,,0,2,0,0,0,0,0,0,0,6056,682,-6088,249,425,-132,-125.9430695,1.162910223,-3536,147,45331,43580,0
,77686439338177232025102910010003,,0,2,0,0,0,0,0,0,0,6636,262,-5614,-223,335,51,-124.749733,1.606588483,-3536,147,8241,43581,0
,77686439338177232025102910010003,,0,2,0,0,0,0,0,0,0,6106,456,-6190,-318,-652,-1,-128.4063568,-1.666756272,-3584,147,4284,43582,0
,77686439338177232025102910010003,,0,2,0,0,0,0,0,0,0,7568,-936,-4890,-2071,-4632,2093,-137.0089874,-4.685270786,-3536,147,10722,43583,0
,77686439338177232025102910010003,,0,2,0,0,0,0,0,0,0,-2134,3120,-9370,-2222,-2819,-1982,-142.4118805,-23.04255676,-3568,147,57612,43584,0
,77686439338177232025102910010003,,0,2,0,0,0,0,0,0,0,-604,3080,-7878,2480,128,712,-80.66477203,-13.92302799,-3568,147,15993,43521,0
,77686439338177232025102910010003,,0,2,0,0,0,0,0,0,0,-2870,704,-8496,1079,-1440,621,-47.24573898,1.120747685,-3552,147,15061,43522,0
,77686439338177232025102910010003,,0,2,0,0,0,0,0,0,0,-2888,-504,-8400,562,874,27,-8.212043762,2.834389925,-3488,147,19298,43523,0
,77686439338177232025102910010003,,0,2,0,0,0,0,0,0,0,-1472,-1112,-8174,175,-32,763,25.30869865,2.183265209,-3520,147,16807,43524,0
,77686439338177232025102910010003,,0,2,0,0,0,0,0,0,0,-2386,-1310,-8396,215,-540,-6,50.06775665,-1.038933396,-3536,147,53558,43525,0
,77686439338177232025102910010003,,0,2,0,0,0,0,0,0,0,-1864,-1238,-8124,-292,265,-907,70.43296051,-0.9676187038,-3504,147,21744,43526,0
,77686439338177232025102910010003,,0,2,0,0,0,0,0,0,0,-2240,-584,-8792,-2231,1511,153,90.76183319,-10.501194,-3488,147,16472,43527,0
,77686439338177232025102910010003,,0,2,0,0,0,0,0,0,0,-1092,524,-8324,-722,-355,538,107.9330521,-11.64446735,-3536,147,62848,43528,0
,77686439338177232025102910010003,,0,2,0,0,0,0,0,0,0,-1400,150,-8360,437,136,11,117.6075134,-8.990997314,-3488,147,6500,43529,0
,77686439338177232025102910010003,,0,2,0,0,0,0,0,0,0,-742,912,-8274,56,370,-225,128.2968903,-11.62978077,-3472,147,56716,43530,0
,77686439338177232025102910010003,,0,2,0,0,0,0,0,0,0,-1262,534,-8334,-609,-393,1038,135.2569885,-10.99154472,-3504,147,54950,43531,0
,77686439338177232025102910010003,,0,2,0,0,0,0,0,0,0,-1638,1384,-8340,-2544,-97,500,140.0094299,-12.79365253,-3504,147,36367,43532,0
,77686439338177232025102910010003,,0,2,0,0,0,0,0,0,0,-1154,-30,-8314,2596,1078,-3610,148.8968658,-0.355471313,-3520,147,22584,43533,0
,77686439338177232025102910010003,,0,2,0,0,0,0,0,0,0,-1338,-614,-8300,-685,-1378,-1510,135.4858704,-0.8319203258,-3504,148,45509,43534,0
,77686439338177232025102910010003,,0,2,0,0,0,0,0,0,0,-2372,396,-8584,93,-491,-311,138.2413177,-9.575655937,-3504,148,26281,43535,0
,77686439338177232025102910010003,,0,2,0,0,0,0,0,0,0,-4256,-1528,-9410,-1384,4482,218,147.0404053,-3.554126024,-3488,148,3978,43536,0
,77686439338177232025102910010003,,0,2,0,0,0,0,0,0,0,4306,354,-7000,118,4012,-1197,142.9942017,-9.373450279,-3488,150,12308,43537,0
,77686439338177232025102910010003,,0,2,0,0,0,0,0,0,0,7316,-442,-4998,-18,1293,-482,110.9252777,-6.659622192,-3504,152,2819,43538,0
,77686439338177232025102910010003,,0,2,0,0,0,0,0,0,0,6354,-70,-5670,-458,-652,231,67.43959808,-9.106273651,-3488,153,26868,43539,0
,77686439338177232025102910010003,,0,2,0,0,0,0,0,0,0,6224,216,-5908,-110,-303,142,27.67550278,-9.900317192,-3472,153,21528,43540,0
,77686439338177232025102910010003,,0,2,0,0,0,0,0,0,0,5414,-232,-6386,-662,-1172,138,-9.029825211,-9.512475967,-3456,153,23837,43541,0
,77686439338177232025102910010003,,0,2,0,0,0,0,0,0,0,4060,84,-7446,-5379,-1578,1154,-45.62120819,-20.83584213,-3440,153,58719,43542,0
,77686439338177232025102910010003,,0,2,0,0,0,0,0,0,0,632,3296,-8506,-91,-1687,-655,-86.49511719,-28.47748184,-3456,153,18033,43543,0
,77686439338177232025102910010003,,0,2,0,0,0,0,0,0,0,94,3500,-8114,-151,33,-61,-99.96534729,-21.35531044,-3472,153,64297,43544,0
,77686439338177232025102910010003,,0,2,0,0,0,0,0,0,0,492,3604,-8082,-117,167,37,-113.7013702,-14.42881298,-3456,153,21303,43545,0
,77686439338177232025102910010003,,0,2,0,0,0,0,0,0,0,808,3314,-7330,-725,-1075,715,-126.6425476,-9.688556671,-3440,153,23866,43546,0
,77686439338177232025102910010003,,0,2,0,0,0,0,0,0,0,-1108,2572,-8430,5100,-821,-524,-112.576973,6.31434536,-3440,153,29266,43547,0
,77686439338177232025102910010003,,0,2,0,0,0,0,0,0,0,-478,402,-8542,329,11,776,-62.7655983,13.65898895,-3456,153,1987,43548,0
,77686439338177232025102910010003,,0,2,0,0,0,0,0,0,0,-3126,-824,-8696,529,-1596,-1028,-28.02307701,14.17604256,-3424,153,15504,43549,0
,77686439338177232025102910010003,,0,2,0,0,0,0,0,0,0,-2380,-268,-8062,-649,-319,-286,4.11630249,8.420974731,-3440,153,22790,43550,0
,77686439338177232025102910010003,,0,2,0,0,0,0,0,0,0,-2776,-678,-8384,-799,909,570,34.97939301,4.263196945,-3408,153,30422,43551,0
,77686439338177232025102910010003,,0,2,0,0,0,0,0,0,0,-1926,-376,-8368,154,372,695,62.11848068,3.452593565,-3424,153,61726,43552,0
,77686439338177232025102910010003,,0,2,0,0,0,0,0,0,0,-2034,6,-8356,89,229,457,81.95578003,2.55711627,-3424,153,37368,43553,0
,77686439338177232025102910010003,,0,2,0,0,0,0,0,0,0,-1886,-100,-8396,-3383,345,1008,97.61763763,-4.284391403,-3440,153,59856,43554,0
,77686439338177232025102910010003,,0,2,0,0,0,0,0,0,0,-506,-2602,-7438,1206,-1522,-3111,110.9180069,1.962877274,-3440,153,56048,43555,0
,77686439338177232025102910010003,,0,2,0,0,0,0,0,0,0,-2954,768,-8054,-830,-551,-408,114.7000961,-10.47776127,-3408,153,18086,43556,0
,77686439338177232025102910010003,,0,2,0,0,0,0,0,0,0,1072,2360,-6166,-68,197,547,121.9354782,-10.7273283,-3392,154,47572,43557,0
,77686439338177232025102910010003,,0,2,0,0,0,0,0,0,0,-1174,-1762,-7540,3260,1678,-430,135.778244,8.374956131,-3392,155,8578,43558,0
,77686439338177232025102910010003,,0,2,0,0,0,0,0,0,0,-410,-3850,-7790,549,95,-40,137.6191101,12.02073288,-3392,156,12727,43559,0
,77686439338177232025102910010003,,0,2,0,0,0,0,0,0,0,-1470,-4266,-7740,-1407,111,-313,143.3829346,4.997185707,-3424,156,9944,43560,0
,77686439338177232025102910010003,,0,2,0,0,0,0,0,0,0,-368,-4184,-7442,-933,456,-334,150.3177185,-1.381875277,-3424,156,19936,43561,0
,77686439338177232025102910010003,,0,2,0,0,0,0,0,0,0,122,-4290,-7122,389,623,-406,150.0955353,-6.558925629,-3392,156,35471,43562,0
,77686439338177232025102910010003,,0,2,0,0,0,0,0,0,0,266,-3006,-7700,-222,643,-386,128.9185028,-13.91248417,-3424,156,43248,43563,0
,77686439338177232025102910010003,,0,2,0,0,0,0,0,0,0,-642,-4838,-7608,-562,-41,166,125.3028107,-14.31017876,-3408,156,32929,43564,0
,77686439338177232025102910010003,,0,2,0,0,0,0,0,0,0,-710,-4704,-7214,-308,-44,510,128.1805115,-17.12734985,-3392,156,56091,43565,0
,77686439338177232025102910010003,,0,2,0,0,0,0,0,0,0,-452,-5084,-7200,-1463,273,-332,137.5043488,-23.35264587,-3376,156,50225,43566,0
,77686439338177232025102910010003,,0,2,0,0,0,0,0,0,0,244,-3896,-7646,-873,-346,-621,116.2425003,-30.11128044,-3376,156,27379,43567,0
,77686439338177232025102910010003,,0,2,0,0,0,0,0,0,0,-1408,-4442,-7906,623,-1175,681,93.72147369,-29.95388412,-3408,156,37904,43568,0
,77686439338177232025102910010003,,0,2,0,0,0,0,0,0,0,-840,-3546,-7630,-498,-422,31,108.574234,-33.26514435,-3360,156,61718,43569,0
,77686439338177232025102910010003,,0,2,0,0,0,0,0,0,0,-1838,-3986,-8054,-1166,922,-401,119.0015945,-33.62513733,-3360,156,39867,43570,0
,77686439338177232025102910010003,,0,2,0,0,0,0,0,0,0,1228,-2278,-8028,-3178,2505,-137,122.5657578,-41.12345505,-3392,157,1802,43571,0
,77686439338177232025102910010003,,0,2,0,0,0,0,0,0,0,-2010,-342,-8262,-3464,-2326,1312,97.90074158,-49.48879623,-3344,158,29746,43572,0
,77686439338177232025102910010003,,0,2,0,0,0,0,0,0,0,-2970,1018,-8450,555,-562,-528,103.3333664,-45.28122711,-3392,158,58761,43573,0
,77686439338177232025102910010003,,0,2,0,0,0,0,0,0,0,-3120,242,-8164,-821,253,451,114.3672714,-35.24098206,-3360,158,27614,43574,0
,77686439338177232025102910010003,,0,2,0,0,0,0,0,0,0,-1726,856,-7844,-985,900,-18,125.3639984,-32.85610962,-3360,158,13244,43575,0
,77686439338177232025102910010003,,0,2,0,0,0,0,0,0,0,-2434,742,-8490,-62,-150,-181,132.8614502,-28.61230087,-3376,159,44663,43576,0
,77686439338177232025102910010003,,0,2,0,0,0,0,0,0,0,-2204,1416,-8318,-48,-98,371,138.4394989,-22.97988892,-3360,159,39893,43577,0
,77686439338177232025102910010003,,0,2,0,0,0,0,0,0,0,-1872,1196,-8436,-197,-214,-230,144.2291412,-19.55270386,-3328,159,33520,43578,0
,77686439338177232025102910010003,,0,2,0,0,0,0,0,0,0,-3798,658,-9110,1328,672,-415,145.5684052,-12.08028889,-3344,159,41076,43579,0
,77686439338177232025102910010003,,0,2,0,0,0,0,0,0,0,-2270,-196,-8322,-1444,160,230,151.9637756,-10.0094614,-3344,160,51039,43580,0
,77686439338177232025102910010003,,0,2,0,0,0,0,0,0,0,-2540,432,-8226,-19,299,137,152.4826965,-8.976540565,-3584,160,45872,43581,0
,77686439338177232025102910010003,,0,2,0,0,0,0,0,0,0,-2580,328,-8034,500,-490,-343,152.118454,-8.673416138,-3088,160,28097,43582,0
,77686439338177232025102910010003,,0,2,0,0,0,0,0,0,0,-2418,-136,-7822,7,-36,-227,153.0520935,-6.877305508,-3328,160,42396,43583,0
,77686439338177232025102910010003,,0,2,0,0,0,0,0,0,0,-3212,-1052,-8374,-141,62,-23,154.3782501,-5.332805157,-3344,160,48026,43584,0
,77686439338177232025102910010003,,0,2,0,0,0,0,0,0,0,-2530,322,-8234,-888,279,125,154.5203857,-6.718250275,-3296,160,21604,43521,0
,77686439338177232025102910010003,,0,2,0,0,0,0,0,0,0,-3252,-604,-7778,100,-209,401,154.8596802,-5.771928787,-3312,160,37471,43522,0
,77686439338177232025102910010003,,0,2,0,0,0,0,0,0,0,-3244,340,-7928,-155,76,208,155.6097565,-6.613453388,-3584,160,50130,43523,0
,77686439338177232025102910010003,,0,2,0,0,0,0,0,0,0,-3194,-266,-8032,86,-228,-41,155.7585449,-5.639725208,-3088,160,21197,43524,0
,77686439338177232025102910010003,,0,2,0,0,0,0,0,0,0,-3246,-26,-8242,-546,-282,143,155.7378235,-6.942461967,-3328,160,32258,43525,0
,77686439338177232025102910010003,,0,2,0,0,0,0,0,0,0,-2572,-672,-7914,-2203,603,729,158.6031647,-9.079115868,-3584,161,9973,43526,0
,77686439338177232025102910010003,,0,2,0,0,0,0,0,0,0,-2996,438,-8114,-459,-135,-159,158.8398132,-9.094646454,-3312,161,22314,43527,0
,77686439338177232025102910010003,,0,2,0,0,0,0,0,0,0,-3300,-194,-8332,-553,346,171,158.3157959,-7.081717968,-3312,161,44964,43528,0
,77686439338177232025102910010003,,0,2,0,0,0,0,0,0,0,-3034,424,-8266,695,-510,-821,158.7876282,-7.057110786,-3296,161,64493,43529,0
,77686439338177232025102910010003,,0,2,0,0,0,0,0,0,0,-3010,168,-8058,-333,14,-111,158.6221008,-6.182013035,-3296,161,20219,43530,0
,77686439338177232025102910010003,,0,2,0,0,0,0,0,0,0,-3072,-22,-8046,-448,-36,18,158.3094025,-6.223988533,-3296,161,11734,43531,0
,77686439338177232025102910010003,,0,2,0,0,0,0,0,0,0,-2564,468,-8126,-208,662,-453,162.5381012,-7.505925655,-3312,161,33353,43532,0
,77686439338177232025102910010003,,0,2,0,0,0,0,0,0,0,-3408,2196,-8734,1354,3380,1067,170.356781,-12.06994534,-3280,161,34741,43533,0
,77686439338177232025102910010003,,0,2,0,0,0,0,0,0,0,4354,-624,-6766,431,4833,-1424,163.8006592,0.3968207538,-3296,163,11631,43534,0
,77686439338177232025102910010003,,0,2,0,0,0,0,0,0,0,6698,-320,-5526,141,1474,114,125.654747,1.451256871,-3280,165,32965,43535,0
,77686439338177232025102910010003,,0,2,0,0,0,0,0,0,0,6580,-290,-5558,663,-256,-197,81.27724457,2.5882411,-3280,166,53149,43536,0
,77686439338177232025102910010003,,0,2,0,0,0,0,0,0,0,7030,-184,-4846,-208,158,-35,45.05577469,2.329003334,-3264,166,7303,43537,0
,77686439338177232025102910010003,,0,2,0,0,0,0,0,0,0,7324,-244,-5018,589,333,-293,13.74948215,2.490273237,-3232,166,14014,43538,0
,77686439338177232025102910010003,,0,2,0,0,0,0,0,0,0,8112,-396,-4340,-1193,-459,-689,-11.37834358,-1.406736255,-3248,166,33400,43539,0
,77686439338177232025102910010003,,0,2,0,0,0,0,0,0,0,6104,-452,-6174,-2159,-2863,804,-48.49975586,-7.246906757,-3248,166,27119,43540,0
,77686439338177232025102910010003,,0,2,0,0,0,0,0,0,0,-364,2666,-9124,-3044,-3667,628,-91.3506012,-25.98500633,-3280,166,34025,43541,0
,77686439338177232025102910010003,,0,2,0,0,0,0,0,0,0,-640,3270,-8816,212,14,-273,-67.31261444,-23.20119858,-3280,166,58017,43542,0
,77686439338177232025102910010003,,0,2,0,0,0,0,0,0,0,588,3024,-8036,-598,-476,87,-87.04899597,-17.31604767,-3280,166,1004,43543,0
,77686439338177232025102910010003,,0,2,0,0,0,0,0,0,0,96,3222,-8234,759,316,-137,-71.69083405,-10.9213686,-3264,166,57120,43544,0
,77686439338177232025102910010003,,0,2,0,0,0,0,0,0,0,760,2722,-8424,-359,-228,477,-84.96256256,-7.495079041,-3248,166,59081,43545,0
,77686439338177232025102910010003,,0,2,0,0,0,0,0,0,0,-1330,3776,-8642,-840,-166,-2781,-58.12479401,-8.41765213,-3280,166,17165,43546,0
,77686439338177232025102910010003,,0,2,0,0,0,0,0,0,0,-388,3234,-8024,-670,-663,-118,-43.75236893,-4.798309803,-3280,166,22133,43547,0
,77686439338177232025102910010003,,0,2,0,0,0,0,0,0,0,-44,3820,-7932,446,-123,-1,-35.20116043,-1.096316814,-3232,166,41879,43548,0
,77686439338177232025102910010003,,0,2,0,0,0,0,0,0,0,-76,2550,-8196,-149,11,-1663,-15.29133797,2.911667585,-3248,166,8230,43549,0
,77686439338177232025102910010003,,0,2,0,0,0,0,0,0,0,828,3654,-7318,-1289,-213,-58,-8.103261948,3.199418068,-3232,166,443,43550,0
,77686439338177232025102910010003,,0,2,0,0,0,0,0,0,0,-14,4594,-7578,-712,376,-23,7.045249939,3.901369333,-3248,166,33769,43551,0
,77686439338177232025102910010003,,0,2,0,0,0,0,0,0,0,-410,4346,-7934,607,841,-271,-5.201726913,9.610687256,-3200,166,15517,43552,0
,77686439338177232025102910010003,,0,2,0,0,0,0,0,0,0,256,4376,-7840,309,723,363,-21.80439377,12.66247368,-3216,166,2722,43553,0
,77686439338177232025102910010003,,0,2,0,0,0,0,0,0,0,920,2946,-7568,-55,-576,671,-43.58021545,17.47358131,-3264,166,34945,43554,0
,77686439338177232025102910010003,,0,2,0,0,0,0,0,0,0,300,3128,-7916,1638,1278,-352,-41.39745712,19.54602814,-3216,166,22774,43555,0
,77686439338177232025102910010003,,0,2,0,0,0,0,0,0,0,-32,4340,-7868,217,111,-334,-46.5326004,17.66643143,-3232,166,31462,43556,0
,77686439338177232025102910010003,,0,2,0,0,0,0,0,0,0,-204,3716,-8044,-234,-284,298,-45.64191437,19.44043732,-3200,166,55877,43557,0
,77686439338177232025102910010003,,0,2,0,0,0,0,0,0,0,-686,4132,-7726,-81,184,-522,-38.55031586,18.04106522,-3216,166,65225,43558,0
,77686439338177232025102910010003,,0,2,0,0,0,0,0,0,0,-294,3636,-7556,-54,466,-85,-4.535987854,17.47912216,-3216,166,28719,43559,0
,77686439338177232025102910010003,,0,2,0,0,0,0,0,0,0,238,3960,-7838,147,41,818,-10.79603958,18.30261612,-3216,166,24822,43560,0
,77686439338177232025102910010003,,0,2,0,0,0,0,0,0,0,188,2614,-8266,575,220,86,-3.707014084,23.02349854,-3200,166,61903,43561,0
,77686439338177232025102910010003,,0,2,0,0,0,0,0,0,0,-10,2924,-8242,-1722,-860,-245,-15.87554741,16.5841217,-3184,166,19692,43562,0
,77686439338177232025102910010003,,0,2,0,0,0,0,0,0,0,2042,852,-8318,42,-429,-2246,-3.517622471,17.89222145,-3200,167,60949,43563,0
,77686439338177232025102910010003,,0,2,0,0,0,0,0,0,0,-2512,1316,-8304,3059,-1421,-1820,-9.364500046,25.83615494,-3184,167,63453,43564,0
,77686439338177232025102910010003,,0,2,0,0,0,0,0,0,0,-2522,800,-7992,446,-302,-964,17.96347809,26.59388542,-3248,167,30591,43565,0
,77686439338177232025102910010003,,0,2,0,0,0,0,0,0,0,-1528,258,-7430,-1387,145,600,45.26832199,20.11283493,-3184,167,45116,43566,0
,77686439338177232025102910010003,,0,2,0,0,0,0,0,0,0,-2198,782,-8078,-1004,-10,754,67.19853973,14.53205967,-3200,167,642,43567,0
,77686439338177232025102910010003,,0,2,0,0,0,0,0,0,0,-1920,922,-8062,-817,322,547,88.08463287,9.561850548,-3184,167,41078,43568,0
,77686439338177232025102910010003,,0,2,0,0,0,0,0,0,0,-2482,1568,-8160,136,-500,-39,98.76584625,8.839801788,-3168,167,3984,43569,0
,77686439338177232025102910010003,,0,2,0,0,0,0,0,0,0,-2812,1008,-8156,-690,-85,633,106.7877502,8.297734261,-3168,167,19868,43570,0
,77686439338177232025102910010003,,0,2,0,0,0,0,0,0,0,-3816,748,-8132,447,-194,19,113.6273651,8.863759995,-3200,167,36264,43571,0
,77686439338177232025102910010003,,0,2,0,0,0,0,0,0,0,-3366,728,-7852,-281,-472,-141,121.2094193,5.464356422,-3152,167,44582,43572,0
,77686439338177232025102910010003,,0,2,0,0,0,0,0,0,0,-3360,370,-7916,180,-148,-482,127.3270569,4.148593903,-3184,167,24197,43573,0
,77686439338177232025102910010003,,0,2,0,0,0,0,0,0,0,-3508,26,-7758,-132,73,-72,131.8046875,4.125309944,-3152,167,26150,43574,0
,77686439338177232025102910010003,,0,2,0,0,0,0,0,0,0,-3428,66,-8036,-831,-11,56,136.3221283,0.9724900126,-3136,167,17278,43575,0
,77686439338177232025102910010003,,0,2,0,0,0,0,0,0,0,-3402,506,-7890,-165,-187,87,139.5287476,-0.6004006267,-3168,168,46742,43576,0
,77686439338177232025102910010003,,0,2,0,0,0,0,0,0,0,-3730,-110,-8042,364,-352,-503,141.9352417,0.5115818381,-3168,168,62351,43577,0
,77686439338177232025102910010003,,0,2,0,0,0,0,0,0,0,-3306,378,-8120,-157,-73,53,145.5468597,-1.822367549,-3152,168,16680,43578,0
,77686439338177232025102910010003,,0,2,0,0,0,0,0,0,0,-3478,748,-8010,-395,-36,148,148.2174683,-2.783631802,-3152,168,39746,43579,0
,77686439338177232025102910010003,,0,2,0,0,0,0,0,0,0,-3418,382,-7800,-255,-100,-41,148.778244,-2.042589664,-3168,168,57336,43580,0
,77686439338177232025102910010003,,0,2,0,0,0,0,0,0,0,-3446,736,-7742,-180,-31,-201,149.7726288,-2.424825191,-3168,168,14380,43581,0
,77686439338177232025102910010003,,0,2,0,0,0,0,0,0,0,-3536,304,-7688,42,-10,-216,150.6061707,-1.017993212,-3184,168,57246,43582,0
,77686439338177232025102910010003,,0,2,0,0,0,0,0,0,0,-3438,222,-7782,-75,-85,-131,151.5887299,-1.533322692,-3104,168,41084,43583,0
,77686439338177232025102910010003,,0,2,0,0,0,0,0,0,0,-3350,290,-7582,108,-104,-222,152.4185028,-2.714530468,-3120,168,49397,43584,0
,77686439338177232025102910010003,,0,2,0,0,0,0,0,0,0,-1128,480,-7612,2637,5789,-693,174.4013214,-0.08028435707,-3152,169,18521,43521,0
,77686439338177232025102910010003,,0,2,0,0,0,0,0,0,0,5014,540,-6854,-2063,2943,1395,143.9002838,-2.298713923,-3120,171,52253,43522,0
,77686439338177232025102910010003,,0,2,0,0,0,0,0,0,0,7482,-444,-4558,-1498,533,-256,108.3825531,-7.107156277,-3120,173,7473,43523,0
,77686439338177232025102910010003,,0,2,0,0,0,0,0,0,0,3570,2630,-8848,679,-4017,4408,37.46511459,-23.29305649,-3136,174,29146,43524,0
,77686439338177232025102910010003,,0,2,0,0,0,0,0,0,0,-1084,-3504,-10530,611,-546,1601,13.38983631,-8.957338333,-3120,174,47178,43525,0
,77686439338177232025102910010003,,0,2,0,0,0,0,0,0,0,5378,-3856,-4640,-2544,3502,-2140,30.28864288,-10.43591499,-3136,175,42140,43526,0
,77686439338177232025102910010003,,0,2,0,0,0,0,0,0,0,6536,2238,-3822,-970,1409,2948,14.97785473,-29.27380371,-3104,177,40634,43527,0
,77686439338177232025102910010003,,0,2,0,0,0,0,0,0,0,6282,520,-2338,-3171,2663,190,3.837584257,-36.60479736,-3152,178,17776,43528,0
,77686439338177232025102910010003,,0,2,0,0,0,0,0,0,0,5982,154,-2496,-1373,1003,2217,-14.12628174,-47.62249756,-3120,179,44110,43529,0
,77686439338177232025102910010003,,0,2,0,0,0,0,0,0,0,6118,-772,-3528,1548,796,-1861,-34.97095108,-34.76906967,-3120,180,22136,43530,0
,77686439338177232025102910010003,,0,2,0,0,0,0,0,0,0,6650,1266,-5316,1289,-180,-361,-56.64690018,-36.9692688,-3104,181,50071,43531,0
,77686439338177232025102910010003,,0,2,0,0,0,0,0,0,0,7708,-1124,-4796,5217,1345,-2276,-65.63220215,-3.774481297,-3136,182,33910,43532,0
,77686439338177232025102910010003,,0,2,0,0,0,0,0,0,0,7092,1304,-3086,4710,741,-624,-69.50650787,10.81306458,-3088,183,52483,43533,0
,77686439338177232025102910010003,,0,2,0,0,0,0,0,0,0,9084,-1708,-4302,3794,582,-2288,-75.28153992,35.02784729,-3120,184,36526,43534,0
,77686439338177232025102910010003,,0,2,0,0,0,0,0,0,0,7932,2628,-4608,88,-362,-887,-84.34732056,29.1148243,-3088,185,28151,43535,0
,77686439338177232025102910010003,,0,2,0,0,0,0,0,0,0,6558,-456,-5488,806,-4,-488,-96.44524384,44.33292007,-3072,185,13334,43536,0
,77686439338177232025102910010003,,0,2,0,0,0,0,0,0,0,5676,544,-5714,-559,1003,1058,-104.1486053,28.49502563,-3104,186,43521,43537,0
,77686439338177232025102910010003,,0,2,0,0,0,0,0,0,0,13382,1576,-4298,-2388,-345,1312,-105.8381577,4.063227177,-3088,187,47620,43538,0
,77686439338177232025102910010003,,0,2,0,0,0,0,0,0,0,8284,-656,-4036,2731,-457,-449,-107.1295547,16.99241447,-3120,187,42319,43539,0
,77686439338177232025102910010003,,0,2,0,0,0,0,0,0,0,7862,-2604,-4088,5115,-2146,-3365,-113.4250183,44.36463547,-3040,188,24045,43540,0
,77686439338177232025102910010003,,0,2,0,0,0,0,0,0,0,7442,-316,-3692,2712,-799,-691,-116.3636246,59.13764572,-3056,189,23507,43541,0
,77686439338177232025102910010003,,0,2,0,0,0,0,0,0,0,5800,-2366,-2704,-396,-2111,-1330,-119.2926941,64.15140533,-2832,190,30234,43542,0
,77686439338177232025102910010003,,0,2,0,0,0,0,0,0,0,5706,-754,-3082,-2143,-1510,1645,-117.517128,46.50360107,-3088,191,32133,43543,0
,77686439338177232025102910010003,,0,2,0,0,0,0,0,0,0,4956,-1634,-1328,304,-1361,-2666,-116.6623383,38.32391739,-3040,192,11478,43544,0
,77686439338177232025102910010003,,0,2,0,0,0,0,0,0,0,5288,-38,-2292,1030,-961,1132,-116.6944962,36.86257553,-3328,193,45870,43545,0
,77686439338177232025102910010003,,0,2,0,0,0,0,0,0,0,5172,-604,-1532,-1851,-1020,-684,-117.1776886,24.04787827,-3072,194,3088,43546,0
,77686439338177232025102910010003,,0,2,0,0,0,0,0,0,0,5822,560,-2272,-1748,-1398,1690,-114.7393036,4.644162178,-2832,195,41449,43547,0
,77686439338177232025102910010003,,0,2,0,0,0,0,0,0,0,6102,-2330,-1848,45,-373,-997,-114.0006561,14.07365227,-3056,196,65331,43548,0
,77686439338177232025102910010003,,0,2,0,0,0,0,0,0,0,4742,304,-1126,325,78,1242,-112.0248947,6.889037132,-3328,197,34219,43549,0
,77686439338177232025102910010003,,0,2,0,0,0,0,0,0,0,5822,-750,-1832,-886,835,-909,-111.7054062,5.163740158,-3056,198,18293,43550,0
,77686439338177232025102910010003,,0,2,0,0,0,0,0,0,0,5566,244,-2534,2826,369,610,-110.2774582,-3.94033289,-3040,199,37740,43551,0
,77686439338177232025102910010003,,0,2,0,0,0,0,0,0,0,6890,-774,-2812,12217,-551,-5585,-112.7495041,48.92690659,-3040,200,33348,43552,0
,77686439338177232025102910010003,,0,2,0,0,0,0,0,0,0,7250,-958,-3060,2857,-1361,-1570,-117.3766556,68.12286377,-3056,201,19329,43553,0
,77686439338177232025102910010003,,0,2,0,0,0,0,0,0,0,6834,-256,-3484,-1261,-1204,471,-120.4721375,55.15858078,-3056,201,56225,43554,0
,77686439338177232025102910010003,,0,2,0,0,0,0,0,0,0,7574,-232,-4636,-3344,1902,1116,-118.3712158,30.6140976,-3040,202,12096,43555,0
,77686439338177232025102910010003,,0,2,0,0,0,0,0,0,0,7070,896,-3268,-2210,1112,966,-113.9895554,6.29134655,-3024,203,13444,43556,0
,77686439338177232025102910010003,,0,2,0,0,0,0,0,0,0,9576,-610,-5252,1761,1122,-707,-116.0580444,5.966262341,-3040,204,41702,43557,0
,77686439338177232025102910010003,,0,2,0,0,0,0,0,0,0,7846,-888,-4240,-2030,118,-308,-113.1837845,13.40684795,-3024,205,13789,43558,0
,77686439338177232025102910010003,,0,2,0,0,0,0,0,0,0,7416,524,-4036,1502,127,-435,-119.5693512,5.838185787,-3024,205,43969,43559,0
,77686439338177232025102910010003,,0,2,0,0,0,0,0,0,0,6940,-1122,-3294,21,1068,351,-115.618454,11.35519886,-3008,205,63202,43560,0
,77686439338177232025102910010003,,0,2,0,0,0,0,0,0,0,6980,884,-2940,5363,-1003,-920,-115.2992554,16.55750847,-3008,206,60391,43561,0
,77686439338177232025102910010003,,0,2,0,0,0,0,0,0,0,7052,-2892,-4492,-1825,-968,22,-119.8354492,24.8367939,-3024,206,10939,43562,0
,77686439338177232025102910010003,,0,2,0,0,0,0,0,0,0,7804,182,-4834,-1310,519,355,-122.1747284,-0.8551869988,-3008,206,60016,43563,0
,77686439338177232025102910010003,,0,2,0,0,0,0,0,0,0,6980,-172,-5032,547,-35,-269,-124.9630127,5.371068478,-3008,206,34970,43564,0
,77686439338177232025102910010003,,0,2,0,0,0,0,0,0,0,7362,-338,-4260,170,-100,-297,-121.5772247,4.566864014,-2992,206,10633,43565,0
,77686439338177232025102910010003,,0,2,0,0,0,0,0,0,0,7332,-384,-4366,-286,223,26,-120.6818848,2.405702591,-3040,206,37114,43566,0
,77686439338177232025102910010003,,0,2,0,0,0,0,0,0,0,7292,-102,-4326,-202,10,-112,-120.5564346,-0.594865799,-3008,206,52255,43567,0
,77686439338177232025102910010003,,0,2,0,0,0,0,0,0,0,7310,-82,-4330,-255,-5,-203,-120.4369507,-2.668036461,-2992,206,2613,43568,0
,77686439338177232025102910010003,,0,2,0,0,0,0,0,0,0,7482,106,-4138,-268,75,-70,-119.8506012,-4.662191391,-2992,206,39527,43569,0
,77686439338177232025102910010003,,0,2,0,0,0,0,0,0,0,7424,-14,-4080,-173,20,-48,-119.5020142,-4.77134943,-3024,206,7909,43570,0
,77686439338177232025102910010003,,0,2,0,0,0,0,0,0,0,7492,130,-4056,-129,7,-57,-119.3537292,-4.950688839,-2992,206,45943,43571,0
,77686439338177232025102910010003,,0,2,0,0,0,0,0,0,0,7366,56,-4168,-224,-77,-102,-119.7023773,-5.142096996,-2992,206,2372,43572,0
,77686439338177232025102910010003,,0,2,0,0,0,0,0,0,0,7180,30,-4198,-122,-11,-90,-119.9584961,-5.135686398,-2976,206,23127,43573,0
,77686439338177232025102910010003,,0,2,0,0,0,0,0,0,0,7370,92,-4280,-227,10,-44,-119.7568665,-5.43413353,-2976,206,8021,43574,0
,77686439338177232025102910010003,,0,2,0,0,0,0,0,0,0,7492,98,-4116,-155,-14,-45,-119.4730301,-5.331273556,-3008,206,7174,43575,0
,77686439338177232025102910010003,,0,2,0,0,0,0,0,0,0,7426,164,-4128,-188,86,-96,-119.0707779,-5.397485256,-2976,206,34574,43576,0
,77686439338177232025102910010003,,0,2,0,0,0,0,0,0,0,7504,268,-3956,-210,-26,-54,-118.6688995,-5.623282433,-2976,206,39880,43577,0
,77686439338177232025102910010003,,0,2,0,0,0,0,0,0,0,7484,230,-4068,-199,-53,-17,-118.997551,-5.547437668,-2960,206,50575,43578,0
,77686439338177232025102910010003,,0,2,0,0,0,0,0,0,0,7478,174,-4122,-190,-23,-47,-119.228302,-5.993377209,-2960,206,36299,43579,0
,77686439338177232025102910010003,,0,2,0,0,0,0,0,0,0,7414,206,-4210,-178,13,-52,-119.3499069,-5.756707191,-2992,206,22601,43580,0
,77686439338177232025102910010003,,0,2,0,0,0,0,0,0,0,7432,140,-4148,-197,-6,-69,-119.3200073,-5.742483616,-2992,206,41757,43581,0
,77686439338177232025102910010003,,0,2,0,0,0,0,0,0,0,7486,220,-4048,-199,-10,-14,-119.2843628,-5.696297169,-2976,206,19997,43582,0
,77686439338177232025102910010003,,0,2,0,0,0,0,0,0,0,7442,178,-4044,-168,-16,-49,-119.4008484,-5.62088728,-2960,206,17035,43583,0
,77686439338177232025102910010003,,0,2,0,0,0,0,0,0,0,7414,200,-4086,-147,-24,-35,-119.3170395,-5.678146362,-2960,206,53574,43584,0
,77686439338177232025102910010003,,0,2,0,0,0,0,0,0,0,7436,144,-4314,-152,-78,-54,-119.5114746,-5.538098335,-2960,206,27657,43521,0
,77686439338177232025102910010003,,0,2,0,0,0,0,0,0,0,7458,192,-4162,-167,-364,141,-120.5919342,-5.351950645,-2960,206,25099,43522,0
,77686439338177232025102910010003,,0,2,0,0,0,0,0,0,0,7106,-254,-4800,-113,-756,402,-125.0218277,-5.273775578,-2976,206,61284,43523,0
,77686439338177232025102910010003,,0,2,0,0,0,0,0,0,0,6688,-514,-5256,-168,-154,17,-128.2251892,-5.855377197,-2928,206,31846,43524,0
,77686439338177232025102910010003,,0,2,0,0,0,0,0,0,0,6666,-470,-5202,-203,412,-332,-127.5571289,-6.714756489,-2928,206,23436,43525,0
,77686439338177232025102910010003,,0,2,0,0,0,0,0,0,0,7304,148,-4444,-360,433,-311,-122.3724365,-8.086544037,-2960,206,12668,43526,0
,77686439338177232025102910010003,,0,2,0,0,0,0,0,0,0,7448,300,-4106,-166,132,-65,-120.454834,-8.049404144,-2960,206,52816,43527,0
,77686439338177232025102910010003,,0,2,0,0,0,0,0,0,0,7340,106,-4146,-17,-24,-132,-120.203186,-6.780498505,-2976,206,23391,43528,0
,77686439338177232025102910010003,,0,2,0,0,0,0,0,0,0,7376,110,-4294,-154,-64,7,-120.3865967,-6.196917057,-2912,206,31896,43529,0
,77686439338177232025102910010003,,0,2,0,0,0,0,0,0,0,7546,586,-4224,659,-259,28,-121.124527,-3.276175499,-2944,206,13887,43530,0
,77686439338177232025102910010003,,0,2,0,0,0,0,0,0,0,7396,196,-4286,226,163,-295,-121.040184,1.219749331,-2944,206,7010,43531,0
,77686439338177232025102910010003,,0,2,0,0,0,0,0,0,0,7512,340,-4146,-902,166,103,-120.302002,-3.34425211,-2944,206,60136,43532,0
,77686439338177232025102910010003,,0,2,0,0,0,0,0,0,0,7304,-30,-4344,151,-239,-67,-120.8702545,-5.031415939,-2928,206,46240,43533,0
,77686439338177232025102910010003,,0,2,0,0,0,0,0,0,0,7298,-152,-4552,-169,-84,-147,-122.0054016,-4.617424011,-2896,206,24720,43534,0
,77686439338177232025102910010003,,0,2,0,0,0,0,0,0,0,7034,-84,-4468,-95,-139,384,-123.1411057,-4.753205299,-2944,206,19010,43535,0
,77686439338177232025102910010003,,0,2,0,0,0,0,0,0,0,7204,-1220,-4678,-2008,119,-245,-122.8396378,-7.026456833,-2928,206,52118,43536,0
,77686439338177232025102910010003,,0,2,0,0,0,0,0,0,0,6584,2194,-5022,1235,-120,-559,-123.3683395,-14.53807068,-2944,206,53759,43537,0
,77686439338177232025102910010003,,0,2,0,0,0,0,0,0,0,6404,-1972,-4616,9137,-90,-5878,-126.7417145,38.4333725,-2928,207,48398,43538,0
,77686439338177232025102910010003,,0,2,0,0,0,0,0,0,0,6408,-684,-4984,7080,130,-2580,-125.5191574,78.52571106,-2944,208,26519,43539,0
,77686439338177232025102910010003,,0,2,0,0,0,0,0,0,0,7278,1138,-3628,2558,1179,231,-125.7632828,89.34427643,-2896,208,45186,43540,0
,77686439338177232025102910010003,,0,2,0,0,0,0,0,0,0,5346,-1524,-4742,-10644,-2448,5203,-130.7793121,32.21141815,-2864,209,17881,43541,0
,77686439338177232025102910010003,,0,2,0,0,0,0,0,0,0,5058,790,-6980,-717,-60,1422,-140.9343719,5.97887373,-2880,209,45122,43542,0
,77686439338177232025102910010003,,0,2,0,0,0,0,0,0,0,5240,-1410,-6502,1280,-1594,-605,-146.4027405,9.429041862,-2848,209,22812,43543,0
,77686439338177232025102910010003,,0,2,0,0,0,0,0,0,0,2052,356,-8982,-1712,-875,1186,-164.3482819,-1.466543555,-2912,209,48167,43544,0
,77686439338177232025102910010003,,0,2,0,0,0,0,0,0,0,2704,-578,-7918,-750,73,1176,-165.2966003,-1.810619831,-2912,209,22548,43545,0
,77686439338177232025102910010003,,0,2,0,0,0,0,0,0,0,826,-540,-8986,-456,-2072,-648,-175.4647827,-4.693023205,-2928,209,15957,43546,0
,77686439338177232025102910010003,,0,2,0,0,0,0,0,0,0,-38,-416,-8734,103,-124,-6,-147.2115631,-5.080913544,-2864,209,11638,43547,0
,77686439338177232025102910010003,,0,2,0,0,0,0,0,0,0,98,-636,-8496,-191,-118,-326,-102.5037308,-6.205215454,-2880,209,2818,43548,0
,77686439338177232025102910010003,,0,2,0,0,0,0,0,0,0,522,6,-8586,-316,2216,-1240,-53.38697433,-8.128206253,-2880,209,43973,43549,0
,77686439338177232025102910010003,,0,2,0,0,0,0,0,0,0,2442,-36,-7922,-1011,824,514,-63.70420837,-9.294133186,-2912,211,9114,43550,0
,77686439338177232025102910010003,,0,2,0,0,0,0,0,0,0,2446,-1876,-8938,271,382,-132,-81.05473328,-8.776446342,-2880,212,58960,43551,0
,77686439338177232025102910010003,,0,2,0,0,0,0,0,0,0,1800,-692,-8442,246,-416,190,-98.32972717,-10.42586136,-2864,213,58002,43552,0
,77686439338177232025102910010003,,0,2,0,0,0,0,0,0,0,3128,-1550,-7832,-1304,1088,-58,-104.6646271,-8.709332466,-2880,213,1376,43553,0
,77686439338177232025102910010003,,0,2,0,0,0,0,0,0,0,3468,-470,-7876,228,2052,-515,-107.9181824,-8.722653389,-2848,213,31166,43554,0
,77686439338177232025102910010003,,0,2,0,0,0,0,0,0,0,4734,-642,-6940,1408,2110,-600,-104.0511551,-7.809251785,-2832,214,6645,43555,0
,77686439338177232025102910010003,,0,2,0,0,0,0,0,0,0,8286,-986,-3592,178,658,-683,-104.1087799,-4.314219952,-2864,216,17931,43556,0
,77686439338177232025102910010003,,0,2,0,0,0,0,0,0,0,7826,-1064,-3162,756,1625,691,-89.1572876,2.396308661,-2896,218,45539,43557,0
,77686439338177232025102910010003,,0,2,0,0,0,0,0,0,0,7974,-1000,-2312,2020,283,-983,-88.5994873,8.113269806,-2896,218,763,43558,0
,77686439338177232025102910010003,,0,2,0,0,0,0,0,0,0,8224,-1084,-1986,-1985,288,-133,-90.70354462,-1.024062753,-2864,218,39155,43559,0
,77686439338177232025102910010003,,0,2,0,0,0,0,0,0,0,7758,90,-2566,-699,59,72,-93.24495697,-5.72637558,-2832,218,36658,43560,0
,77686439338177232025102910010003,,0,2,0,0,0,0,0,0,0,8276,-130,-2450,287,-673,41,-96.4265976,-1.956213117,-2864,218,43636,43561,0
,77686439338177232025102910010003,,0,2,0,0,0,0,0,0,0,7980,-4,-2216,-230,247,-436,-97.3944931,1.559967995,-2864,218,25951,43562,0
,77686439338177232025102910010003,,0,2,0,0,0,0,0,0,0,7692,372,-2128,-362,494,-120,-96.88851166,-5.073278904,-2864,218,19625,43563,0
,77686439338177232025102910010003,,0,2,0,0,0,0,0,0,0,8158,-104,-1996,-1192,-239,149,-99.08996582,-12.68803215,-2848,218,13003,43564,0
,77686439338177232025102910010003,,0,2,0,0,0,0,0,0,0,8046,-50,-2336,-193,-73,-634,-101.1855545,-11.47063541,-2864,218,31966,43565,0
,77686439338177232025102910010003,,0,2,0,0,0,0,0,0,0,8824,-50,-1234,-1358,-891,704,-100.9505539,-11.92681408,-2864,218,59363,43566,0
,77686439338177232025102910010003,,0,2,0,0,0,0,0,0,0,7320,-94,-3642,-2349,-3542,1957,-114.8491135,-28.94605255,-2832,218,62952,43567,0
,77686439338177232025102910010003,,0,2,0,0,0,0,0,0,0,5602,-442,-6620,148,-407,-393,-129.4075012,-44.4767189,-2848,218,61323,43568,0
,77686439338177232025102910010003,,0,2,0,0,0,0,0,0,0,6314,1170,-5864,-714,672,29,-131.381546,-41.85055923,-2864,218,18053,43569,0
,77686439338177232025102910010003,,0,2,0,0,0,0,0,0,0,5432,-540,-6714,-1079,708,860,-131.0587921,-34.95758057,-3072,218,65503,43570,0
,77686439338177232025102910010003,,0,2,0,0,0,0,0,0,0,7192,-262,-4524,3376,1030,-2254,-119.4655151,-18.64108658,-2816,218,24317,43571,0
,77686439338177232025102910010003,,0,2,0,0,0,0,0,0,0,7788,-570,-3168,515,-27,-10,-115.0488129,-6.627068043,-2576,218,21707,43572,0
,77686439338177232025102910010003,,0,2,0,0,0,0,0,0,0,7468,-316,-3400,-194,340,-634,-112.8802643,-2.485824108,-2864,218,26486,43573,0
,77686439338177232025102910010003,,0,2,0,0,0,0,0,0,0,8060,936,-2928,690,245,-368,-111.2637405,-1.230521321,-2800,219,52554,43574,0
,77686439338177232025102910010003,,0,2,0,0,0,0,0,0,0,7818,38,-3012,532,-74,12,-111.0757904,1.609852552,-2800,219,62891,43575,0
,77686439338177232025102910010003,,0,2,0,0,0,0,0,0,0,7900,44,-2946,209,-474,-321,-110.2372742,-0.1497621983,-2832,219,1530,43576,0
,77686439338177232025102910010003,,0,2,0,0,0,0,0,0,0,7764,-310,-3084,-238,347,-18,-109.6571732,1.549872279,-2576,219,31589,43577,0
,77686439338177232025102910010003,,0,2,0,0,0,0,0,0,0,8036,-24,-2702,-193,-152,-6,-109.8300171,-2.071869373,-2800,219,42853,43578,0
,77686439338177232025102910010003,,0,2,0,0,0,0,0,0,0,8010,150,-2736,25,-107,-523,-110.3562469,-2.517549276,-2800,219,11053,43579,0
,77686439338177232025102910010003,,0,2,0,0,0,0,0,0,0,8092,508,-2708,-398,-106,44,-110.3306961,-2.04350543,-2800,219,34828,43580,0
,77686439338177232025102910010003,,0,2,0,0,0,0,0,0,0,8372,-86,-2226,-532,187,-392,-109.4626694,-6.010436535,-2768,219,30280,43581,0
,77686439338177232025102910010003,,0,2,0,0,0,0,0,0,0,7776,-108,-3160,-292,-416,-123,-111.5395203,-3.209637403,-2800,219,62748,43582,0
,77686439338177232025102910010003,,0,2,0,0,0,0,0,0,0,8222,410,-3108,-1303,-833,724,-115.7916412,-9.894451141,-2784,219,32292,43583,0
,77686439338177232025102910010003,,0,2,0,0,0,0,0,0,0,5016,-4306,-5774,3280,-1069,-1067,-133.6656189,6.636722565,-3072,219,64698,43584,0
,77686439338177232025102910010003,,0,2,0,0,0,0,0,0,0,7224,-492,-3336,5361,520,-3448,-130.0492249,27.23378181,-2784,220,51066,43521,0
,77686439338177232025102910010003,,0,2,0,0,0,0,0,0,0,7650,1030,-3934,4863,-460,-921,-129.1247864,49.08071518,-2768,220,56031,43522,0
,77686439338177232025102910010003,,0,2,0,0,0,0,0,0,0,7122,-394,-2126,-5547,1829,2026,-116.2429276,21.35386658,-2816,221,42450,43523,0
,77686439338177232025102910010003,,0,2,0,0,0,0,0,0,0,8400,1626,-1762,6788,332,-2254,-112.7115173,18.66502953,-2800,222,4004,43524,0
,77686439338177232025102910010003,,0,2,0,0,0,0,0,0,0,8104,-2154,-2594,4358,285,-443,-121.2548904,59.42922974,-2736,223,49338,43525,0
,77686439338177232025102910010003,,0,2,0,0,0,0,0,0,0,8268,-1634,-2994,736,-617,-900,-126.9378738,65.37663269,-2816,223,50228,43526,0
,77686439338177232025102910010003,,0,2,0,0,0,0,0,0,0,6704,1042,-3764,-4024,1221,3907,-125.1138,42.24708557,-2768,224,51704,43527,0
,77686439338177232025102910010003,,0,2,0,0,0,0,0,0,0,6306,386,-1620,-9782,1043,3085,-114.9183197,-4.150666237,-2752,225,1742,43528,0
,77686439338177232025102910010003,,0,2,0,0,0,0,0,0,0,5382,1800,-1790,-5063,295,4351,-110.7613602,-49.2640152,-2768,226,55592,43529,0
,77686439338177232025102910010003,,0,2,0,0,0,0,0,0,0,5850,-32,-666,-2705,455,-544,-103.882988,-60.38343811,-2768,227,47109,43530,0
,77686439338177232025102910010003,,0,2,0,0,0,0,0,0,0,5072,302,-1166,-730,570,1593,-102.6157303,-59.79682159,-2768,228,49638,43531,0
,77686439338177232025102910010003,,0,2,0,0,0,0,0,0,0,4320,-630,-1232,1674,106,-2056,-104.4332962,-43.3599472,-2768,229,21657,43532,0
,77686439338177232025102910010003,,0,2,0,0,0,0,0,0,0,4432,302,-1260,-1683,43,1893,-105.988327,-44.73940277,-2784,230,58028,43533,0
,77686439338177232025102910010003,,0,2,0,0,0,0,0,0,0,4368,-1006,-830,2548,71,-2915,-105.5262756,-27.00708961,-2768,231,18582,43534,0
,77686439338177232025102910010003,,0,2,0,0,0,0,0,0,0,4650,578,-1152,-1986,-1240,1906,-107.2891083,-31.69825935,-2768,232,60589,43535,0
,77686439338177232025102910010003,,0,2,0,0,0,0,0,0,0,4554,-710,-1284,399,-486,-1577,-108.1702347,-21.87020302,-2752,233,4980,43536,0
,77686439338177232025102910010003,,0,2,0,0,0,0,0,0,0,4648,526,-830,-1447,-757,2108,-107.5837097,-29.08555794,-2736,234,25862,43537,0
,77686439338177232025102910010003,,0,2,0,0,0,0,0,0,0,6062,-1128,-928,1499,-1087,-1593,-107.2812271,-15.14737034,-2752,235,27267,43538,0
,77686439338177232025102910010003,,0,2,0,0,0,0,0,0,0,5052,798,-1256,-2067,-513,1884,-108.3240814,-24.58883476,-2736,236,6457,43539,0
,77686439338177232025102910010003,,0,2,0,0,0,0,0,0,0,5566,-554,-1496,-5044,417,157,-107.3867798,-26.70413589,-2736,237,53847,43540,0
,77686439338177232025102910010003,,0,2,0,0,0,0,0,0,0,5182,2032,-4026,1872,-1100,-122,-108.6242599,-39.4330101,-2720,238,49880,43541,0
,77686439338177232025102910010003,,0,2,0,0,0,0,0,0,0,7374,-2688,-3304,-2956,1821,61,-109.9241333,-35.48216629,-2752,239,31309,43542,0
,77686439338177232025102910010003,,0,2,0,0,0,0,0,0,0,7382,480,-1812,-3640,941,640,-108.2993011,-60.75562668,-2688,240,36396,43543,0
,77686439338177232025102910010003,,0,2,0,0,0,0,0,0,0,8502,-1452,-1874,2657,-1368,-437,-112.8771667,-38.21277618,-2736,241,21839,43544,0
,77686439338177232025102910010003,,0,2,0,0,0,0,0,0,0,6408,-588,-2760,-252,-1367,-1322,-117.3479614,-31.19221878,-2736,242,21940,43545,0
,77686439338177232025102910010003,,0,2,0,0,0,0,0,0,0,5244,1106,-2818,-5624,1686,3880,-115.577179,-54.33729553,-2736,243,16492,43546,0
,77686439338177232025102910010003,,0,2,0,0,0,0,0,0,0,7128,-798,-3214,-930,1440,121,-111.2556686,-55.51306915,-2704,244,39333,43547,0
,77686439338177232025102910010003,,0,2,0,0,0,0,0,0,0,6158,530,-3356,-1953,903,2219,-112.5527954,-57.80477142,-2704,245,48591,43548,0
,77686439338177232025102910010003,,0,2,0,0,0,0,0,0,0,7250,46,-2912,-4832,1557,136,-109.2422333,-57.40898132,-2720,246,49386,43549,0
,77686439338177232025102910010003,,0,2,0,0,0,0,0,0,0,7546,1568,-3734,-4138,154,3102,-113.1287613,-76.74304962,-2752,247,12885,43550,0
,77686439338177232025102910010003,,0,2,0,0,0,0,0,0,0,8784,-746,-4232,-2409,1162,85,-111.7661972,-76.64382935,-2752,248,41857,43551,0
,77686439338177232025102910010003,,0,2,0,0,0,0,0,0,0,9670,1992,-5352,-1307,-429,1449,-112.9802856,-72.24724579,-2736,249,42707,43552,0
,77686439338177232025102910010003,,0,2,0,0,0,0,0,0,0,7884,-426,-5620,1210,-294,-1807,-116.6479187,-55.94393158,-2720,250,11675,43553,0
,77686439338177232025102910010003,,0,2,0,0,0,0,0,0,0,8902,2290,-6668,4736,-781,-4827,-123.4942245,-29.58360291,-2688,251,23976,43554,0
,77686439338177232025102910010003,,0,2,0,0,0,0,0,0,0,-470,-3138,-7930,-1911,-8846,-4510,-156.5592194,11.65603542,-2688,251,13135,43555,0
,77686439338177232025102910010003,,0,2,0,0,0,0,0,0,0,-6334,-700,-9916,52,-986,-1995,-126.8419724,2.004713535,-2688,251,21269,43556,0
,77686439338177232025102910010003,,0,2,0,0,0,0,0,0,0,-3310,338,-7194,-700,858,-318,-72.7137146,-3.548532963,-2688,251,13867,43557,0
,77686439338177232025102910010003,,0,2,0,0,0,0,0,0,0,-3834,832,-7992,-1035,-405,185,-31.55044556,-6.84299612,-2720,251,44682,43558,0
,77686439338177232025102910010003,,0,2,0,0,0,0,0,0,0,-3996,748,-7792,658,-49,-281,0.4419324398,-7.13049078,-2656,251,17032,43559,0
,77686439338177232025102910010003,,0,2,0,0,0,0,0,0,0,-3796,280,-7562,446,84,3,30.44117355,-5.194697857,-2720,251,55580,43560,0
,77686439338177232025102910010003,,0,2,0,0,0,0,0,0,0,-3968,1852,-7814,184,-117,-733,52.27772522,-8.841778755,-2704,251,27871,43561,0
,77686439338177232025102910010003,,0,2,0,0,0,0,0,0,0,-3238,1104,-7356,-338,-652,243,70.44108582,-6.696392536,-2640,251,1283,43562,0
,77686439338177232025102910010003,,0,2,0,0,0,0,0,0,0,-5552,956,-8280,-97,2554,-1179,85.43588257,-4.629045963,-2672,251,30672,43563,0
,77686439338177232025102910010003,,0,2,0,0,0,0,0,0,0,-696,460,-8576,-2024,3825,-2184,121.0435944,-8.564600945,-2688,253,48235,43564,0
,77686439338177232025102910010003,,0,2,0,0,0,0,0,0,0,3678,-1284,-6576,2190,451,-167,94.62439728,4.025906563,-2688,255,27161,43565,0
,77686439338177232025102910010003,,0,2,0,0,0,0,0,0,0,-2534,-1308,-8326,3087,-4204,-1318,52.5561142,9.300758362,-2688,255,26536,43566,0
,77686439338177232025102910010003,,0,2,0,0,0,0,0,0,0,-4118,-1936,-6348,852,-1019,-188,57.96221924,7.407784939,-2688,255,2325,43567,0
,77686439338177232025102910010003,,0,2,0,0,0,0,0,0,0,-5716,-5346,-8292,-965,819,1001,71.97185516,5.452105045,-2688,255,43028,43568,0
,77686439338177232025102910010003,,0,2,0,0,0,0,0,0,0,-2206,-2376,-8726,-3472,3953,378,107.0691681,-14.24391556,-2704,256,58381,43569,0
,77686439338177232025102910010003,,0,2,0,0,0,0,0,0,0,5238,1432,-5560,1784,5296,-576,114.6321106,-15.70306778,-2688,258,63723,43570,0
,77686439338177232025102910010003,,0,2,0,0,0,0,0,0,0,5986,-1754,-3026,376,854,-313,94.22727203,-8.115717888,-2688,260,32730,43571,0
,77686439338177232025102910010003,,0,2,0,0,0,0,0,0,0,6416,20,-2338,1954,132,-641,64.0091095,-4.254045486,-2672,262,3900,43572,0
,77686439338177232025102910010003,,0,2,0,0,0,0,0,0,0,6438,-1048,-2148,-3127,1512,588,37.70528412,-14.00979519,-2656,263,20406,43573,0
,77686439338177232025102910010003,,0,2,0,0,0,0,0,0,0,6140,420,-4302,-736,-350,706,9.547914505,-24.40623856,-2640,264,10020,43574,0
,77686439338177232025102910010003,,0,2,0,0,0,0,0,0,0,6474,850,-4402,-1205,-1172,1502,-19.98344803,-20.21640778,-2656,264,62483,43575,0
,77686439338177232025102910010003,,0,2,0,0,0,0,0,0,0,6290,-2492,-4282,-1648,1122,1462,-38.73987198,-31.34810829,-2672,265,15215,43576,0
,77686439338177232025102910010003,,0,2,0,0,0,0,0,0,0,4376,-1248,-5492,-479,1045,-2042,-52.39816284,-33.52386856,-2656,266,23132,43577,0
,77686439338177232025102910010003,,0,2,0,0,0,0,0,0,0,8548,-2772,-5740,-4008,1972,2037,-60.76746368,-41.29819107,-2688,266,47394,43578,0
,77686439338177232025102910010003,,0,2,0,0,0,0,0,0,0,9498,-1642,-4714,-1816,-754,423,-71.33198547,-51.32554245,-2640,267,14901,43579,0
,77686439338177232025102910010003,,0,2,0,0,0,0,0,0,0,8256,72,-4144,550,-549,231,-76.41375732,-44.40382385,-2640,268,41215,43580,0
,77686439338177232025102910010003,,0,2,0,0,0,0,0,0,0,9610,-900,-3030,-2184,-2030,500,-81.99286652,-47.96579742,-2672,269,43672,43581,0
,77686439338177232025102910010003,,0,2,0,0,0,0,0,0,0,7992,-1028,-3518,1993,-1199,-437,-89.15783691,-24.63552284,-2656,270,59400,43582,0
,77686439338177232025102910010003,,0,2,0,0,0,0,0,0,0,8612,-796,-2766,-1339,-1842,1177,-92.91873169,-26.70302963,-2640,272,26900,43583,0
,77686439338177232025102910010003,,0,2,0,0,0,0,0,0,0,8290,-220,-3894,823,-1367,154,-98.23260498,-17.52872467,-2624,272,51376,43584,0
,77686439338177232025102910010003,,0,2,0,0,0,0,0,0,0,9580,-762,-3282,-1671,-1765,337,-100.6222458,-25.8337059,-2640,274,46235,43521,0
,77686439338177232025102910010003,,0,2,0,0,0,0,0,0,0,8282,-884,-4382,-35,-1047,256,-105.7200699,-13.28995037,-2624,274,45517,43522,0
,77686439338177232025102910010003,,0,2,0,0,0,0,0,0,0,9792,-1380,-2306,-1095,-1189,680,-106.8515701,-17.17014694,-2640,276,35940,43523,0
,77686439338177232025102910010003,,0,2,0,0,0,0,0,0,0,7924,-648,-3782,-38,-1408,533,-109.3193817,-13.9960556,-2656,276,64123,43524,0
,77686439338177232025102910010003,,0,2,0,0,0,0,0,0,0,9086,-1744,-3040,-1390,-1683,658,-110.4071274,-17.88012505,-2640,278,16039,43525,0
,77686439338177232025102910010003,,0,2,0,0,0,0,0,0,0,8292,-866,-3916,66,-1251,593,-111.7305832,-12.44931126,-2608,278,51392,43526,0
,77686439338177232025102910010003,,0,2,0,0,0,0,0,0,0,7938,-1340,-2912,-1503,-1445,517,-108.8705139,-21.09418106,-2624,279,23250,43527,0
,77686439338177232025102910010003,,0,2,0,0,0,0,0,0,0,7502,-790,-3456,546,-1234,190,-112.5203857,-17.70054436,-2624,280,1834,43528,0
,77686439338177232025102910010003,,0,2,0,0,0,0,0,0,0,6558,-2190,-2688,-1003,-791,178,-112.2864761,-18.26139641,-2608,281,10122,43529,0
,77686439338177232025102910010003,,0,2,0,0,0,0,0,0,0,6286,-80,-2806,1760,-915,-945,-113.7381363,-11.83553123,-2608,282,50958,43530,0
,77686439338177232025102910010003,,0,2,0,0,0,0,0,0,0,5328,-1832,-2162,-2530,-1000,846,-110.8023834,-15.8495121,-2624,283,48897,43531,0
,77686439338177232025102910010003,,0,2,0,0,0,0,0,0,0,6638,536,-2008,2211,-812,-340,-112.2438431,-11.96143055,-2640,284,25201,43532,0
,77686439338177232025102910010003,,0,2,0,0,0,0,0,0,0,5328,136,-3634,667,-2466,-222,-123.6212845,-8.499744415,-2592,285,10950,43533,0
,77686439338177232025102910010003,,0,2,0,0,0,0,0,0,0,2130,-1804,-7766,1740,-5169,-2111,-158.3207245,0.3649815023,-2624,285,34544,43534,0
,77686439338177232025102910010003,,0,2,0,0,0,0,0,0,0,-616,-1028,-8772,-546,-2694,-763,-176.2344513,-1.947995186,-2608,285,8224,43535,0
,77686439338177232025102910010003,,0,2,0,0,0,0,0,0,0,-938,-24,-7648,-48,-1559,-1007,-129.2778015,-6.390962601,-2624,285,33834,43536,0
,77686439338177232025102910010003,,0,2,0,0,0,0,0,0,0,-3714,-332,-8608,-2419,-46,-91,-85.59715271,-5.45700264,-2576,285,53446,43537,0
,77686439338177232025102910010003,,0,2,0,0,0,0,0,0,0,-2000,-532,-8226,1401,3422,1636,-28.60414124,-3.622582197,-2608,285,36522,43538,0
,77686439338177232025102910010003,,0,2,0,0,0,0,0,0,0,-758,-534,-7782,1367,-3026,1481,-21.56884003,-0.08819804341,-2592,287,582,43539,0
,77686439338177232025102910010003,,0,2,0,0,0,0,0,0,0,-3838,-3166,-7836,190,-686,-297,-3.645473719,1.403927684,-2576,287,39785,43540,0
,77686439338177232025102910010003,,0,2,0,0,0,0,0,0,0,-3334,-3138,-7878,-1901,2544,-326,28.41720581,-8.371632576,-2816,287,53109,43541,0
,77686439338177232025102910010003,,0,2,0,0,0,0,0,0,0,-1386,468,-8382,-1785,1553,-2569,53.47240829,-19.59305,-2576,288,51873,43542,0
,77686439338177232025102910010003,,0,2,0,0,0,0,0,0,0,2828,-1368,-7932,-862,1831,976,66.26597595,-15.67768288,-2592,289,17143,43543,0
,77686439338177232025102910010003,,0,2,0,0,0,0,0,0,0,3090,-1060,-7370,-69,9,412,27.98796463,-17.03142738,-2608,291,25195,43544,0
,77686439338177232025102910010003,,0,2,0,0,0,0,0,0,0,2016,-1418,-8444,-786,374,-1422,-6.046793461,-17.7251873,-2608,291,56328,43545,0
,77686439338177232025102910010003,,0,2,0,0,0,0,0,0,0,3604,1386,-7900,1103,1014,-1056,-28.84765625,-16.99483681,-2592,292,2598,43546,0
,77686439338177232025102910010003,,0,2,0,0,0,0,0,0,0,2702,-826,-8330,1280,-1587,-1036,-58.3181572,-1.629214406,-2576,292,23363,43547,0
,77686439338177232025102910010003,,0,2,0,0,0,0,0,0,0,1422,-406,-8594,-1764,762,1653,-82.87506866,-7.867421627,-2320,292,30394,43548,0
,77686439338177232025102910010003,,0,2,0,0,0,0,0,0,0,1722,-316,-8294,1717,-707,-102,-98.51598358,-8.880209923,-2320,292,48810,43549,0
,77686439338177232025102910010003,,0,2,0,0,0,0,0,0,0,880,-2380,-8514,-135,285,24,-115.5688934,-1.547403693,-2560,292,42206,43550,0
,77686439338177232025102910010003,,0,2,0,0,0,0,0,0,0,1522,-208,-8964,-38,1561,475,-121.2919922,-15.43892956,-2576,292,58520,43551,0
,77686439338177232025102910010003,,0,2,0,0,0,0,0,0,0,3662,738,-7840,-239,1753,-42,-116.1920853,-16.07527733,-2560,293,6831,43552,0
,77686439338177232025102910010003,,0,2,0,0,0,0,0,0,0,4878,-204,-6980,-1200,929,622,-114.6643829,-11.192276,-2320,295,11157,43553,0
,77686439338177232025102910010003,,0,2,0,0,0,0,0,0,0,4956,-348,-7110,471,177,-160,-118.4185104,-6.676281929,-2576,295,59576,43554,0
,77686439338177232025102910010003,,0,2,0,0,0,0,0,0,0,5186,116,-6968,-84,-101,-283,-122.459053,-7.733278751,-2816,295,63210,43555,0
,77686439338177232025102910010003,,0,2,0,0,0,0,0,0,0,5110,-28,-7058,-148,-210,-90,-127.03405,-6.637403488,-2816,295,34831,43556,0
,77686439338177232025102910010003,,0,2,0,0,0,0,0,0,0,4854,600,-7236,155,77,-200,-130.6374207,-7.418889523,-2528,295,32373,43557,0
,77686439338177232025102910010003,,0,2,0,0,0,0,0,0,0,5114,154,-7080,91,264,49,-131.8231354,-5.603242874,-2544,295,646,43558,0
,77686439338177232025102910010003,,0,2,0,0,0,0,0,0,0,5302,408,-6790,386,277,-46,-132.4049835,-3.698410749,-2816,295,52723,43559,0
,77686439338177232025102910010003,,0,2,0,0,0,0,0,0,0,5658,74,-6520,221,-219,-288,-132.8046265,-1.49449718,-2544,295,23079,43560,0
,77686439338177232025102910010003,,0,2,0,0,0,0,0,0,0,5046,-372,-7220,-168,-122,-123,-136.3473816,-0.3629509509,-2816,295,26957,43561,0
,77686439338177232025102910010003,,0,2,0,0,0,0,0,0,0,4830,490,-6402,2189,-696,-963,-141.8427582,1.641475081,-2544,295,40710,43562,0
,77686439338177232025102910010003,,0,2,0,0,0,0,0,0,0,5578,378,-6562,-3804,-1172,1864,-143.3116455,-12.40928841,-2512,295,18830,43563,0
,77686439338177232025102910010003,,0,2,0,0,0,0,0,0,0,1882,2298,-8172,-2125,-2675,848,-165.7923889,-32.24415207,-2544,295,13087,43564,0
,77686439338177232025102910010003,,0,2,0,0,0,0,0,0,0,1746,1098,-8342,287,552,-234,-170.6046295,-22.65015221,-2544,295,2714,43565,0
,77686439338177232025102910010003,,0,2,0,0,0,0,0,0,0,1334,3082,-8180,-430,-37,253,-173.2642517,-21.54719162,-2544,295,22963,43566,0
,77686439338177232025102910010003,,0,2,0,0,0,0,0,0,0,1662,2590,-7914,-126,49,362,-172.2684479,-13.3702755,-2560,295,48681,43567,0
,77686439338177232025102910010003,,0,2,0,0,0,0,0,0,0,1802,2596,-8132,-259,202,15,-169.0727081,-8.360277176,-2496,295,13673,43568,0
,77686439338177232025102910010003,,0,2,0,0,0,0,0,0,0,1992,2834,-8242,3,-33,7,-167.5703735,-4.336362362,-2512,295,42226,43569,0
,77686439338177232025102910010003,,0,2,0,0,0,0,0,0,0,2644,1712,-8078,2132,2174,-1823,-160.3302917,7.979787827,-2512,295,27331,43570,0
,77686439338177232025102910010003,,0,2,0,0,0,0,0,0,0,4080,90,-7862,-106,984,-341,-150.9266052,12.57458019,-2512,296,41817,43571,0
,77686439338177232025102910010003,,0,2,0,0,0,0,0,0,0,4454,272,-7224,3,557,-1027,-144.3156586,11.16179371,-2496,297,37152,43572,0
,77686439338177232025102910010003,,0,2,0,0,0,0,0,0,0,4956,1288,-7372,50,-327,-325,-144.4529266,9.396427155,-2544,297,36644,43573,0
,77686439338177232025102910010003,,0,2,0,0,0,0,0,0,0,4722,1402,-7262,102,349,385,-144.0825348,7.265521526,-2512,297,53299,43574,0
,77686439338177232025102910010003,,0,2,0,0,0,0,0,0,0,5384,862,-6858,-351,91,-188,-140.917038,5.934206009,-2528,297,53277,43575,0
,77686439338177232025102910010003,,0,2,0,0,0,0,0,0,0,5454,1278,-6674,-143,388,-239,-139.721283,3.334017992,-2512,297,6240,43576,0
,77686439338177232025102910010003,,0,2,0,0,0,0,0,0,0,5458,1288,-6702,-557,-110,124,-139.7523193,2.980177402,-2528,297,25317,43577,0
,77686439338177232025102910010003,,0,2,0,0,0,0,0,0,0,5240,1462,-6682,-202,-80,-93,-140.7673798,2.034319878,-2512,297,27472,43578,0
,77686439338177232025102910010003,,0,2,0,0,0,0,0,0,0,5430,1356,-6582,-178,-5,-162,-140.6937103,2.212901115,-2512,297,53689,43579,0
,77686439338177232025102910010003,,0,2,0,0,0,0,0,0,0,5564,1272,-6660,123,105,-180,-140.3595276,4.212159157,-2512,297,58264,43580,0
,77686439338177232025102910010003,,0,2,0,0,0,0,0,0,0,5448,1066,-6666,-438,109,-122,-139.4253235,3.603166342,-2480,297,46101,43581,0
,77686439338177232025102910010003,,0,2,0,0,0,0,0,0,0,5884,804,-6582,-93,78,713,-138.6246948,5.137241364,-2528,297,25430,43582,0
,77686439338177232025102910010003,,0,2,0,0,0,0,0,0,0,5818,670,-6674,-1201,-1211,-225,-140.1282959,1.733349085,-2512,297,28187,43583,0
,77686439338177232025102910010003,,0,2,0,0,0,0,0,0,0,4932,1012,-7158,1647,-1479,-1554,-148.9678345,3.153855324,-2512,297,63332,43584,0
,77686439338177232025102910010003,,0,2,0,0,0,0,0,0,0,3712,-476,-8072,-1250,59,-261,-155.3166199,10.75093365,-2480,297,17698,43521,0
,77686439338177232025102910010003,,0,2,0,0,0,0,0,0,0,2952,434,-8222,2983,-2353,-3246,-161.7460175,12.85699654,-2480,297,34321,43522,0
,77686439338177232025102910010003,,0,2,0,0,0,0,0,0,0,1248,-248,-8602,-350,118,551,-169.4390411,13.91847134,-2480,297,33938,43523,0
,77686439338177232025102910010003,,0,2,0,0,0,0,0,0,0,1758,-38,-8780,-455,-143,51,-169.1186066,6.913550377,-2496,297,50451,43524,0
,77686439338177232025102910010003,,0,2,0,0,0,0,0,0,0,2236,-302,-8450,158,637,-282,-165.7211151,4.730802536,-2464,297,47496,43525,0
,77686439338177232025102910010003,,0,2,0,0,0,0,0,0,0,1920,120,-8774,-656,1379,-42,-162.3286743,1.014831185,-2496,297,8987,43526,0
,77686439338177232025102910010003,,0,2,0,0,0,0,0,0,0,3926,866,-7170,-2047,2139,1972,-146.3648529,-8.248378754,-2480,298,38988,43527,0
,77686439338177232025102910010003,,0,2,0,0,0,0,0,0,0,5860,-158,-6112,-870,332,1600,-136.9938354,-11.2781086,-2448,300,44283,43528,0
,77686439338177232025102910010003,,0,2,0,0,0,0,0,0,0,5814,-386,-6184,-22,-221,243,-136.9567566,-10.60864639,-2496,300,41917,43529,0
,77686439338177232025102910010003,,0,2,0,0,0,0,0,0,0,5988,-396,-6324,-762,108,702,-137.3316803,-11.90223503,-2464,300,37555,43530,0
,77686439338177232025102910010003,,0,2,0,0,0,0,0,0,0,5958,-412,-5954,-977,-118,552,-136.5250549,-14.96967316,-2480,300,54815,43531,0
,77686439338177232025102910010003,,0,2,0,0,0,0,0,0,0,6090,40,-6370,-1434,76,195,-136.6894989,-15.11457348,-2464,300,63362,43532,0
,77686439338177232025102910010003,,0,2,0,0,0,0,0,0,0,5356,378,-6210,-249,-231,-452,-137.2203217,-14.5930109,-2464,300,12784,43533,0
,77686439338177232025102910010003,,0,2,0,0,0,0,0,0,0,5478,792,-6556,-1459,-1186,713,-140.2784729,-13.4335289,-2496,300,23126,43534,0
,77686439338177232025102910010003,,0,2,0,0,0,0,0,0,0,4504,-506,-7612,-241,-686,847,-150.2851257,-13.06638908,-2480,300,51636,43535,0
,77686439338177232025102910010003,,0,2,0,0,0,0,0,0,0,3976,496,-7648,-972,-491,25,-153.9752655,-16.14214897,-2464,300,11035,43536,0
,77686439338177232025102910010003,,0,2,0,0,0,0,0,0,0,3528,288,-7926,-318,150,-208,-156.0684357,-11.78544998,-2464,300,6422,43537,0
,77686439338177232025102910010003,,0,2,0,0,0,0,0,0,0,3348,-300,-8184,-1308,154,277,-155.5489502,-11.36271095,-2432,300,62603,43538,0
,77686439338177232025102910010003,,0,2,0,0,0,0,0,0,0,4016,2376,-6962,-953,-1285,2489,-155.7883301,-20.61487389,-2464,300,2615,43539,0
,77686439338177232025102910010003,,0,2,0,0,0,0,0,0,0,3008,-514,-8136,84,227,411,-162.7240295,-14.59686947,-2448,300,45234,43540,0
,77686439338177232025102910010003,,0,2,0,0,0,0,0,0,0,2190,-1912,-8064,1331,-380,-141,-166.7644806,-3.061659813,-2464,300,9434,43541,0
,77686439338177232025102910010003,,0,2,0,0,0,0,0,0,0,2906,-1870,-7938,-176,-456,-2627,-166.5859222,-5.383697033,-2448,300,41717,43542,0
,77686439338177232025102910010003,,0,2,0,0,0,0,0,0,0,3104,822,-8134,-1018,1146,-2202,-164.8590851,-12.56299019,-2448,300,56864,43543,0
,77686439338177232025102910010003,,0,2,0,0,0,0,0,0,0,3400,1230,-8046,1234,286,-860,-159.3838654,-11.07546329,-2464,300,31029,43544,0
,77686439338177232025102910010003,,0,2,0,0,0,0,0,0,0,4324,-938,-7504,-133,33,324,-154.4457397,-1.017788291,-2464,300,42823,43545,0
,77686439338177232025102910010003,,0,2,0,0,0,0,0,0,0,3658,-488,-7536,-1742,-928,1922,-157.9872284,-8.295280457,-2432,300,23464,43546,0
,77686439338177232025102910010003,,0,2,0,0,0,0,0,0,0,3332,194,-8028,743,58,-1095,-158.0739441,-7.264970303,-2400,300,32149,43547,0
,77686439338177232025102910010003,,0,2,0,0,0,0,0,0,0,3372,-382,-8266,-571,-60,664,-158.050354,-6.31627655,-2464,300,31506,43548,0
,77686439338177232025102910010003,,0,2,0,0,0,0,0,0,0,3134,-1302,-7768,625,-539,-324,-159.7721405,-6.260364532,-2432,300,32841,43549,0
,77686439338177232025102910010003,,0,2,0,0,0,0,0,0,0,3174,-972,-8234,620,23,-219,-160.7307434,-4.157666683,-2464,300,45144,43550,0
,77686439338177232025102910010003,,0,2,0,0,0,0,0,0,0,3134,-636,-8258,798,-106,-714,-160.3034668,-5.216430187,-2448,300,43589,43551,0
,77686439338177232025102910010003,,0,2,0,0,0,0,0,0,0,3230,-342,-7742,-3093,-124,1621,-161.4579163,-14.37887764,-2432,300,56919,43552,0
,77686439338177232025102910010003,,0,2,0,0,0,0,0,0,0,2262,-100,-8348,208,-347,31,-165.272644,-15.01734447,-2432,300,10123,43553,0
,77686439338177232025102910010003,,0,2,0,0,0,0,0,0,0,1570,216,-8560,347,-85,-1020,-166.760376,-14.05301094,-2432,300,56343,43554,0
,77686439338177232025102910010003,,0,2,0,0,0,0,0,0,0,2148,1056,-8480,-822,285,-111,-167.3438568,-13.31226635,-2432,300,29567,43555,0
,77686439338177232025102910010003,,0,2,0,0,0,0,0,0,0,2196,-1292,-8164,385,571,-301,-166.3342743,-4.505786896,-2416,300,16732,43556,0
,77686439338177232025102910010003,,0,2,0,0,0,0,0,0,0,2222,-296,-8508,-334,245,-139,-165.3946686,-6.932736397,-2416,300,16565,43557,0
,77686439338177232025102910010003,,0,2,0,0,0,0,0,0,0,2680,-526,-8276,-3285,-657,1251,-166.0897064,-14.04061031,-2416,300,64587,43558,0
,77686439338177232025102910010003,,0,2,0,0,0,0,0,0,0,1618,466,-8424,-139,-379,-131,-169.0491638,-9.610450745,-2384,300,33432,43559,0
,77686439338177232025102910010003,,0,2,0,0,0,0,0,0,0,1984,-336,-8394,720,-63,-283,-169.0739594,-5.273048401,-2432,300,10713,43560,0
,77686439338177232025102910010003,,0,2,0,0,0,0,0,0,0,1874,-1090,-8634,915,593,-2729,-169.3237762,-2.766818523,-2400,300,8381,43561,0
,77686439338177232025102910010003,,0,2,0,0,0,0,0,0,0,2630,34,-7890,-658,309,865,-165.4740753,-5.124284267,-2432,300,29731,43562,0
,77686439338177232025102910010003,,0,2,0,0,0,0,0,0,0,2336,-368,-8924,337,-607,803,-169.9006653,-10.09524727,-2448,300,64264,43563,0
,77686439338177232025102910010003,,0,2,0,0,0,0,0,0,0,616,-908,-9006,-480,-4477,-4695,-176.5944672,-5.380655766,-2416,301,15795,43564,0
,77686439338177232025102910010003,,0,2,0,0,0,0,0,0,0,-1408,702,-7552,-1676,4264,-864,-113.82901,-9.875665665,-2368,301,18319,43565,0
,77686439338177232025102910010003,,0,2,0,0,0,0,0,0,0,5518,-1322,-5768,3103,4089,-4963,-83.06977081,12.5978384,-2416,303,32172,43566,0
,77686439338177232025102910010003,,0,2,0,0,0,0,0,0,0,9148,-40,-5866,5034,366,-2226,-77.53648376,37.04416275,-2400,305,31929,43567,0
,77686439338177232025102910010003,,0,2,0,0,0,0,0,0,0,6792,-2006,-6218,2797,1957,-961,-81.53229523,52.37157822,-2400,306,15495,43568,0
,77686439338177232025102910010003,,0,2,0,0,0,0,0,0,0,6332,1840,-7496,-1277,360,-582,-86.34085083,38.94668961,-2416,308,14518,43569,0
,77686439338177232025102910010003,,0,2,0,0,0,0,0,0,0,11258,-3780,-6204,335,1550,-132,-89.84872437,31.70338821,-2416,309,35636,43570,0
,77686439338177232025102910010003,,0,2,0,0,0,0,0,0,0,10498,1074,-6248,-2232,1353,-1071,-91.97264099,18.68540573,-2384,310,56416,43571,0
,77686439338177232025102910010003,,0,2,0,0,0,0,0,0,0,10072,-826,-6450,487,1568,-266,-97.72520447,14.91037941,-2368,311,26548,43572,0
,77686439338177232025102910010003,,0,2,0,0,0,0,0,0,0,8128,-14,-6568,-2247,1090,-775,-101.9965286,11.27786922,-2416,312,8282,43573,0
,77686439338177232025102910010003,,0,2,0,0,0,0,0,0,0,11730,-2120,-6184,1438,912,-1097,-104.2649918,7.609959602,-2368,313,61141,43574,0
,77686439338177232025102910010003,,0,2,0,0,0,0,0,0,0,11600,646,-4824,-1431,910,1259,-104.9506912,4.265960693,-2432,314,56295,43575,0
,77686439338177232025102910010003,,0,2,0,0,0,0,0,0,0,9322,-2072,-6066,58,731,-880,-108.9639893,-0.9532572627,-2384,315,8444,43576,0
,77686439338177232025102910010003,,0,2,0,0,0,0,0,0,0,9524,2200,-5184,-1478,177,1214,-108.6141205,-4.894402027,-2416,316,33586,43577,0
,77686439338177232025102910010003,,0,2,0,0,0,0,0,0,0,8372,-1434,-4368,881,972,-945,-108.7834702,-0.5533943176,-2400,317,18623,43578,0
,77686439338177232025102910010003,,0,2,0,0,0,0,0,0,0,6466,1226,-3510,-680,1038,973,-107.6691132,-7.622615814,-2368,318,64312,43579,0
,77686439338177232025102910010003,,0,2,0,0,0,0,0,0,0,6564,-894,-2942,809,1527,-1207,-108.9173965,-1.184551954,-2368,319,33195,43580,0
,77686439338177232025102910010003,,0,2,0,0,0,0,0,0,0,5702,272,-2814,-300,175,2154,-111.0548477,-7.13254118,-2368,320,50918,43581,0
,77686439338177232025102910010003,,0,2,0,0,0,0,0,0,0,6364,-1002,-2662,-1070,1075,-1765,-109.5141068,-5.910217762,-2368,321,33808,43582,0
,77686439338177232025102910010003,,0,2,0,0,0,0,0,0,0,6404,446,-2826,-794,612,1900,-110.60392,-15.9929657,-2352,323,24675,43583,0
,77686439338177232025102910010003,,0,2,0,0,0,0,0,0,0,8836,-460,-4036,-2681,342,609,-111.519043,-25.11951637,-2384,324,13407,43584,0
,77686439338177232025102910010003,,0,2,0,0,0,0,0,0,0,8298,670,-4274,-1865,-250,2070,-115.1752548,-18.04273796,-2384,325,1459,43521,0
,77686439338177232025102910010003,,0,2,0,0,0,0,0,0,0,8894,-22,-5398,313,295,460,-119.4889526,-12.39079475,-2384,326,36976,43522,0
,77686439338177232025102910010003,,0,2,0,0,0,0,0,0,0,8510,-862,-4320,1676,-366,-2111,-119.9825363,23.13504028,-2384,327,18251,43523,0
,77686439338177232025102910010003,,0,2,0,0,0,0,0,0,0,8284,68,-3400,4279,-1197,-1075,-117.9102249,39.7608223,-2368,327,14817,43524,0
,77686439338177232025102910010003,,0,2,0,0,0,0,0,0,0,8342,-1280,-2684,-1136,-1525,-305,-118.148674,40.06459427,-2368,328,54596,43525,0
,77686439338177232025102910010003,,0,2,0,0,0,0,0,0,0,6426,180,-2624,1463,-776,-386,-116.3490829,33.23468399,-2352,329,48587,43526,0
,77686439338177232025102910010003,,0,2,0,0,0,0,0,0,0,4402,-2132,-1894,-1112,-2491,-2175,-126.1932602,35.98965454,-2352,330,60669,43527,0
,77686439338177232025102910010003,,0,2,0,0,0,0,0,0,0,-1614,4170,-9150,-1686,-4632,-2081,-152.5833588,17.79842377,-2352,330,22586,43528,0
,77686439338177232025102910010003,,0,2,0,0,0,0,0,0,0,-598,3470,-7484,3936,6067,-1064,-81.24505615,29.20215225,-2336,330,48544,43529,0
,77686439338177232025102910010003,,0,2,0,0,0,0,0,0,0,7666,-1444,-2214,4989,2923,-5126,-52.61798859,72.09926605,-2352,332,21208,43530,0
,77686439338177232025102910010003,,0,2,0,0,0,0,0,0,0,5964,278,-2594,2872,182,-996,-60.80903244,91.78879547,-2368,334,45924,43531,0
,77686439338177232025102910010003,,0,2,0,0,0,0,0,0,0,4710,-596,-1800,2875,306,-2746,-67.53812408,95.20263672,-2320,335,34895,43532,0
,77686439338177232025102910010003,,0,2,0,0,0,0,0,0,0,4982,354,-1596,-980,696,1903,-72.38898468,72.53253937,-2336,336,13515,43533,0
,77686439338177232025102910010003,,0,2,0,0,0,0,0,0,0,5920,-676,-1960,-1130,977,-1164,-77.86967468,58.13699722,-2560,337,2082,43534,0
,77686439338177232025102910010003,,0,2,0,0,0,0,0,0,0,6146,1198,-2406,-5730,28,2152,-83.66623688,16.82885933,-2336,338,53022,43535,0
,77686439338177232025102910010003,,0,2,0,0,0,0,0,0,0,7120,-730,-5784,-9861,-4282,5331,-99.76605225,-25.89412308,-2352,339,11009,43536,0
,77686439338177232025102910010003,,0,2,0,0,0,0,0,0,0,6134,1632,-6698,2040,1340,-283,-111.038208,-36.45807266,-2560,339,7952,43537,0
,77686439338177232025102910010003,,0,2,0,0,0,0,0,0,0,7312,-1172,-2162,3215,966,-1595,-103.4506378,-8.89975071,-2320,340,26068,43538,0
,77686439338177232025102910010003,,0,2,0,0,0,0,0,0,0,8084,-1032,-2534,3624,-1652,-2108,-104.2442245,17.5085392,-2352,341,27175,43539,0
,77686439338177232025102910010003,,0,2,0,0,0,0,0,0,0,7828,670,-4016,-714,-1012,-1129,-106.9657745,15.11607742,-2352,342,42952,43540,0
,77686439338177232025102910010003,,0,2,0,0,0,0,0,0,0,9150,874,-5042,-781,-257,72,-111.7778244,7.367980957,-2336,343,19869,43541,0
,77686439338177232025102910010003,,0,2,0,0,0,0,0,0,0,8138,-1308,-6390,-3373,1256,634,-113.4669266,1.430261135,-2368,344,51114,43542,0
,77686439338177232025102910010003,,0,2,0,0,0,0,0,0,0,15120,642,-4238,-2223,2098,67,-109.1665726,-11.69486237,-2320,345,64326,43543,0
,77686439338177232025102910010003,,0,2,0,0,0,0,0,0,0,14250,-894,-4576,-7054,2532,3784,-109.2610168,-19.54936409,-2336,346,14546,43544,0
,77686439338177232025102910010003,,0,2,0,0,0,0,0,0,0,8242,-2216,-5242,-4412,588,2252,-106.3554611,-71.00519562,-2352,347,10853,43545,0
,77686439338177232025102910010003,,0,2,0,0,0,0,0,0,0,8814,-946,-4038,5355,-713,-2244,-110.8644485,-47.60123444,-2336,348,56720,43546,0
,77686439338177232025102910010003,,0,2,0,0,0,0,0,0,0,10124,-592,-5564,537,551,-1141,-108.8078537,-13.22555828,-2320,349,13779,43547,0
,77686439338177232025102910010003,,0,2,0,0,0,0,0,0,0,7844,-286,-5684,1809,1050,86,-113.0833511,-2.569038153,-2560,349,50739,43548,0
,77686439338177232025102910010003,,0,2,0,0,0,0,0,0,0,7754,-1258,-4030,-1252,954,-69,-112.3809662,2.252191305,-2352,351,41234,43549,0
,77686439338177232025102910010003,,0,2,0,0,0,0,0,0,0,8456,6,-4972,1946,45,-276,-113.7850266,-2.52611351,-2560,352,28225,43550,0
,77686439338177232025102910010003,,0,2,0,0,0,0,0,0,0,8298,-394,-3496,-1038,-1419,-692,-115.816658,-0.4307205975,-2064,353,3655,43551,0
,77686439338177232025102910010003,,0,2,0,0,0,0,0,0,0,8420,56,-3324,909,592,-493,-113.913063,3.176132917,-2320,353,45931,43552,0
,77686439338177232025102910010003,,0,2,0,0,0,0,0,0,0,9334,-656,-3764,-1457,-730,175,-114.5204391,2.465333462,-2064,355,33733,43553,0
,77686439338177232025102910010003,,0,2,0,0,0,0,0,0,0,8812,836,-2596,510,-311,54,-112.5175629,-2.760910988,-2320,356,35672,43554,0
,77686439338177232025102910010003,,0,2,0,0,0,0,0,0,0,6566,-1200,-2544,-1448,-721,-867,-113.29776,-0.09156333655,-2288,357,3992,43555,0
,77686439338177232025102910010003,,0,2,0,0,0,0,0,0,0,6070,440,-2320,467,-403,575,-112.940155,-8.340328217,-2320,358,6937,43556,0
,77686439338177232025102910010003,,0,2,0,0,0,0,0,0,0,5838,-1222,-1222,-1175,-499,-1343,-110.9528732,-2.441756487,-2288,359,26941,43557,0
,77686439338177232025102910010003,,0,2,0,0,0,0,0,0,0,6332,1100,-2052,-1138,-678,1423,-112.9758759,-15.22857094,-2304,360,14771,43558,0
,77686439338177232025102910010003,,0,2,0,0,0,0,0,0,0,5962,-604,-1940,445,-138,-1499,-112.3521881,-7.275803566,-2560,361,14136,43559,0
,77686439338177232025102910010003,,0,2,0,0,0,0,0,0,0,6828,752,-2942,-1895,116,1715,-113.4253387,-19.8265934,-2288,362,8651,43560,0
,77686439338177232025102910010003,,0,2,0,0,0,0,0,0,0,8474,-1146,-3460,4743,-725,-3083,-114.8601685,4.032414436,-2560,363,11760,43561,0
,77686439338177232025102910010003,,0,2,0,0,0,0,0,0,0,7168,2632,-5896,-1320,44,1042,-122.7783737,4.666146755,-2288,364,55645,43562,0
,77686439338177232025102910010003,,0,2,0,0,0,0,0,0,0,6646,-2466,-5604,5342,-5398,-2366,-140.2811737,30.77237129,-2304,364,13211,43563,0
,77686439338177232025102910010003,,0,2,0,0,0,0,0,0,0,-684,-234,-10022,-2480,-2378,134,-158.1451569,21.74486732,-2288,364,42832,43564,0
,77686439338177232025102910010003,,0,2,0,0,0,0,0,0,0,1022,-1756,-9652,-325,602,339,-124.1229553,18.43203735,-2272,364,19972,43565,0
,77686439338177232025102910010003,,0,2,0,0,0,0,0,0,0,1382,-66,-8998,-1808,847,1085,-129.1546631,8.448478699,-2288,364,1562,43566,0
,77686439338177232025102910010003,,0,2,0,0,0,0,0,0,0,4252,1136,-7678,-1355,2118,-743,-118.5543976,-3.138553381,-2304,365,62255,43567,0
,77686439338177232025102910010003,,0,2,0,0,0,0,0,0,0,4362,1732,-7288,-250,362,102,-120.1957626,-4.728924274,-2288,366,33700,43568,0
,77686439338177232025102910010003,,0,2,0,0,0,0,0,0,0,4002,1254,-7610,97,-264,290,-127.1134033,-1.064067841,-2272,366,38871,43569,0
,77686439338177232025102910010003,,0,2,0,0,0,0,0,0,0,4336,376,-7796,712,-959,-145,-131.2970734,5.906498909,-2320,366,33797,43570,0
,77686439338177232025102910010003,,0,2,0,0,0,0,0,0,0,3956,382,-7650,134,-25,-43,-137.3629608,4.585404396,-2272,366,39943,43571,0
,77686439338177232025102910010003,,0,2,0,0,0,0,0,0,0,3864,198,-7798,-109,-124,29,-140.9085541,3.313125849,-2288,366,11675,43572,0
,77686439338177232025102910010003,,0,2,0,0,0,0,0,0,0,3794,306,-7864,-231,32,-16,-143.9032135,1.435505509,-2304,366,62787,43573,0
,77686439338177232025102910010003,,0,2,0,0,0,0,0,0,0,3662,476,-7910,-149,-120,44,-146.1207733,0.4317166507,-2288,366,48120,43574,0
,77686439338177232025102910010003,,0,2,0,0,0,0,0,0,0,3738,236,-7790,-206,59,-62,-147.4203796,-0.9374161363,-2272,366,49842,43575,0
,77686439338177232025102910010003,,0,2,0,0,0,0,0,0,0,4158,856,-7726,655,249,-1159,-147.1356659,-0.2190029025,-2256,366,12109,43576,0
,77686439338177232025102910010003,,0,2,0,0,0,0,0,0,0,3980,-8,-7718,-449,-4,334,-149.30513,1.484550476,-2272,366,7807,43577,0
,77686439338177232025102910010003,,0,2,0,0,0,0,0,0,0,3858,86,-7754,-190,117,-258,-150.1623077,-0.7657042146,-2272,366,64107,43578,0
,77686439338177232025102910010003,,0,2,0,0,0,0,0,0,0,3852,290,-7696,-265,3,-116,-150.6172333,-1.730597019,-2256,366,16708,43579,0
,77686439338177232025102910010003,,0,2,0,0,0,0,0,0,0,3906,190,-7726,-129,33,-90,-151.0385132,-2.594986677,-2272,366,5181,43580,0
,77686439338177232025102910010003,,0,2,0,0,0,0,0,0,0,3840,290,-7840,-115,-29,-47,-151.7640533,-3.091934681,-2256,366,39498,43581,0
,77686439338177232025102910010003,,0,2,0,0,0,0,0,0,0,3834,278,-7880,-280,-87,-101,-152.7332306,-3.944770575,-2208,366,47612,43582,0
,77686439338177232025102910010003,,0,2,0,0,0,0,0,0,0,3818,454,-7842,-519,-89,-41,-153.8384247,-5.155963421,-2256,366,22524,43583,0
,77686439338177232025102910010003,,0,2,0,0,0,0,0,0,0,4360,740,-7576,-56,88,974,-152.424057,-3.974541903,-2240,366,6886,43584,0
,77686439338177232025102910010003,,0,2,0,0,0,0,0,0,0,1084,-624,-8648,344,-1152,422,-170.1260986,-0.5879027247,-2288,366,52382,43521,0
,77686439338177232025102910010003,,0,2,0,0,0,0,0,0,0,880,-2486,-8376,115,219,300,-168.1201782,1.388608813,-2272,366,43805,43522,0
,77686439338177232025102910010003,,0,2,0,0,0,0,0,0,0,2308,-1344,-8232,49,986,-2415,-161.853302,-4.337969303,-2256,366,60302,43523,0
,77686439338177232025102910010003,,0,2,0,0,0,0,0,0,0,3540,-824,-8092,-1178,610,-966,-157.763382,-5.750147343,-2240,366,46920,43524,0
